time ax ay az button
0.000000 -0.000000 0.000000 0.000000 0.000000
0.002000 -0.000000 0.000000 0.000000 0.000000
0.004000 -0.000000 0.000000 0.000000 0.000000
0.006000 -0.000000 0.000000 -0.065808 0.000000
0.008000 -0.000000 -0.065777 -0.067229 0.000000
0.010000 -0.000000 -0.058843 -0.067229 0.000000
0.012000 -0.000000 -0.058690 -0.056627 0.000000
0.014000 -0.000000 -0.036311 -0.031043 0.000000
0.016000 -0.000000 -0.023905 -0.071657 0.000000
0.018000 -0.000000 -0.038852 -0.086229 0.000000
0.020000 -0.000000 -0.043542 -0.086229 0.000000
0.022000 -0.000000 -0.043374 -0.069686 0.000000
0.024000 0.001534 -0.037262 -0.075931 0.000000
0.026000 0.001534 -0.037587 -0.085892 0.000000
0.028000 0.001534 -0.033643 -0.063977 0.000000
0.030000 0.001534 -0.027238 -0.063977 0.000000
0.032000 0.001534 -0.027064 -0.052257 0.000000
0.034000 0.001534 -0.024983 -0.080653 0.000000
0.036000 0.001534 -0.024746 -0.088310 0.000000
0.038000 0.001534 -0.024768 -0.088310 0.000000
0.040000 0.001534 -0.024630 -0.084329 0.000000
0.042000 0.001534 -0.024645 -0.086206 0.000000
0.044000 0.001534 -0.022923 -0.113336 0.000000
0.046000 0.001534 -0.020417 -0.089260 0.000000
0.048000 0.001534 -0.017190 -0.089260 0.000000
0.050000 0.001534 -0.017071 -0.070326 0.000000
0.052000 0.001534 -0.010542 -0.060394 0.000000
0.054000 0.001534 -0.008555 -0.055325 0.000000
0.056000 0.001534 -0.007473 -0.055325 0.000000
0.058000 0.001534 -0.007411 -0.060508 0.000000
0.060000 0.001534 -0.007051 -0.069956 0.000000
0.062000 0.001534 -0.008530 -0.083217 0.000000
0.064000 0.001534 -0.010777 -0.090066 0.000000
0.066000 0.001534 -0.013242 -0.090066 0.000000
0.068000 0.001534 -0.013182 -0.086612 0.000000
0.070000 0.001534 -0.014439 -0.072764 0.000000
0.072000 0.001534 -0.015185 -0.075704 0.000000
0.074000 0.001534 -0.016309 -0.070538 0.000000
0.076000 0.001534 -0.016293 -0.070538 0.000000
0.078000 0.001534 -0.016204 -0.067603 0.000000
0.080000 0.001534 -0.015782 -0.090913 0.000000
0.082000 0.001534 -0.017709 -0.100524 0.000000
0.084000 0.001534 -0.018664 -0.100524 0.000000
0.086000 0.001534 -0.018566 -0.098336 0.000000
0.088000 0.001534 -0.018026 -0.097656 0.000000
0.090000 0.001534 -0.017153 -0.094226 0.000000
0.092000 0.001534 -0.014700 -0.084672 0.000000
0.094000 0.001534 -0.012038 -0.084672 0.000000
0.096000 0.001534 -0.011954 -0.068020 0.000000
0.098000 0.001534 -0.007674 -0.054755 0.000000
0.100000 0.001534 -0.004262 -0.059792 0.000000
0.102000 0.001534 -0.002337 -0.059792 0.000000
0.104000 0.001534 -0.002306 -0.054403 0.000000
0.106000 0.001534 -0.000620 -0.056998 0.000000
0.108000 0.001534 -0.000856 -0.056998 0.000000
0.110000 0.001534 -0.000849 -0.058621 0.000000
0.112000 0.001534 -0.001588 -0.065884 0.000000
0.114000 0.001534 -0.002936 -0.053244 0.000000
0.116000 0.001534 -0.003781 -0.047145 0.000000
0.118000 0.001534 -0.006460 -0.047145 0.000000
0.120000 0.001534 -0.006440 -0.038933 0.000000
0.122000 0.001534 -0.009509 -0.046689 0.000000
0.124000 0.001534 -0.013035 -0.040629 0.000000
0.126000 0.001534 -0.015943 -0.040629 0.000000
0.128000 0.001534 -0.015876 -0.068037 0.000000
0.130000 0.001534 -0.020115 -0.088092 0.000000
0.132000 0.001534 -0.023168 -0.092060 0.000000
0.134000 0.001534 -0.024873 -0.099375 0.000000
0.136000 0.001534 -0.024117 -0.099375 0.000000
0.138000 0.001534 -0.023986 -0.096331 0.000000
0.140000 0.001534 -0.020795 -0.096400 0.000000
0.142000 0.001534 -0.017831 -0.075966 0.000000
0.144000 0.001534 -0.014356 -0.075966 0.000000
0.146000 0.001534 -0.014251 -0.072578 0.000000
0.148000 0.001534 -0.012628 -0.072153 0.000000
0.150000 0.001534 -0.012768 -0.079168 0.000000
0.152000 -0.000000 -0.014529 -0.074243 0.000000
0.154000 -0.000000 -0.016598 -0.074243 0.000000
0.156000 -0.000000 -0.016517 -0.102333 0.000000
0.158000 -0.000000 -0.020823 -0.107596 0.000000
0.160000 -0.000000 -0.023803 -0.096810 0.000000
0.162000 -0.000000 -0.024900 -0.101000 0.000000
0.164000 -0.000000 -0.023432 -0.101000 0.000000
0.166000 -0.000000 -0.023300 -0.101610 0.000000
0.168000 -0.000000 -0.020030 -0.081115 0.000000
0.170000 -0.000000 -0.015985 -0.085057 0.000000
0.172000 -0.000000 -0.013557 -0.085057 0.000000
0.174000 -0.000000 -0.013460 -0.076130 0.000000
0.176000 -0.000000 -0.013910 -0.085304 0.000000
0.178000 -0.000000 -0.016179 -0.069735 0.000000
0.180000 -0.000000 -0.018268 -0.101429 0.000000
0.182000 -0.000000 -0.022591 -0.101429 0.000000
0.184000 -0.000000 -0.022492 -0.120894 0.000000
0.186000 -0.000000 -0.026230 -0.120615 0.000000
0.188000 -0.001534 -0.027441 -0.148371 0.000000
0.190000 -0.001534 -0.026593 -0.148371 0.000000
0.192000 -0.001534 -0.026447 -0.109763 0.000000
0.194000 -0.001534 -0.013782 -0.092665 0.000000
0.196000 -0.001534 -0.005849 -0.064030 0.000000
0.198000 -0.001534 -0.001511 -0.033818 0.000000
0.200000 -0.001534 -0.001936 -0.033818 0.000000
0.202000 -0.001534 -0.001909 -0.029705 0.000000
0.204000 -0.001534 -0.005182 -0.039537 0.000000
0.206000 -0.001534 -0.008946 -0.071838 0.000000
0.208000 -0.001534 -0.013747 -0.121278 0.000000
0.210000 -0.001534 -0.017708 -0.121278 0.000000
0.212000 -0.001534 -0.017643 -0.145354 0.000000
0.214000 -0.001534 -0.019208 -0.108494 0.000000
0.216000 -0.001534 -0.017339 -0.052099 0.000000
0.218000 -0.001534 -0.014328 -0.052099 0.000000
0.220000 -0.001534 -0.014232 0.012874 0.000000
0.222000 -0.001534 -0.014724 0.034705 0.000000
0.224000 -0.001534 -0.017518 0.018302 0.000000
0.226000 -0.001534 -0.022278 -0.138616 0.000000
0.228000 -0.003068 -0.029478 -0.138616 0.000000
0.230000 -0.003068 -0.029358 -0.170069 0.000000
0.232000 -0.003068 -0.032338 -0.165545 0.000000
0.234000 -0.003068 -0.031524 -0.160729 0.000000
0.236000 -0.003068 -0.028850 -0.160729 0.000000
0.238000 -0.003068 -0.028680 -0.018477 0.000000
0.240000 -0.003068 -0.018880 0.058098 0.000000
0.242000 -0.003068 -0.013179 0.075752 0.000000
0.244000 -0.003068 -0.012024 -0.087615 0.000000
0.246000 -0.003068 -0.017742 -0.087615 0.000000
0.248000 -0.003068 -0.017655 -0.180650 0.000000
0.250000 -0.003068 -0.023589 -0.210196 0.000000
0.252000 -0.003068 -0.026207 -0.195130 0.000000
0.254000 -0.004602 -0.025522 -0.195130 0.000000
0.256000 -0.004602 -0.025392 -0.067026 0.000000
0.258000 -0.004602 -0.013935 0.003291 0.000000
0.260000 -0.004602 -0.004194 0.050894 0.000000
0.262000 -0.004602 0.003182 -0.035581 0.000000
0.264000 -0.004602 0.000929 -0.035581 0.000000
0.266000 -0.004602 0.000938 -0.106995 0.000000
0.268000 -0.004602 -0.005532 -0.157959 0.000000
0.270000 -0.004602 -0.013307 -0.160173 0.000000
0.272000 -0.004602 -0.019550 -0.072482 0.000000
0.274000 -0.006136 -0.019962 -0.072482 0.000000
0.276000 -0.006136 -0.019881 -0.052892 0.000000
0.278000 -0.006136 -0.015592 -0.060257 0.000000
0.280000 -0.006136 -0.009817 -0.108852 0.000000
0.282000 -0.006136 -0.004409 -0.108852 0.000000
0.284000 -0.006136 -0.004355 -0.107114 0.000000
0.286000 -0.006136 -0.001442 -0.070627 0.000000
0.288000 -0.006136 -0.001286 -0.014718 0.000000
0.290000 -0.006136 -0.002638 -0.030543 0.000000
0.292000 -0.006136 -0.004317 -0.030543 0.000000
0.294000 -0.007670 -0.004310 -0.098689 0.000000
0.296000 -0.007670 -0.007074 -0.168621 0.000000
0.298000 -0.007670 -0.009495 -0.165987 0.000000
0.300000 -0.007670 -0.009329 -0.165987 0.000000
0.302000 -0.007670 -0.009295 -0.068415 0.000000
0.304000 -0.007670 -0.009273 0.022100 0.000000
0.306000 -0.007670 -0.008972 0.059733 0.000000
0.308000 -0.007670 -0.005997 -0.082376 0.000000
0.310000 -0.007670 -0.007136 -0.082376 0.000000
0.312000 -0.007670 -0.007100 -0.126865 0.000000
0.314000 -0.007670 -0.012204 -0.122598 0.000000
0.316000 -0.009204 -0.018067 -0.085826 0.000000
0.318000 -0.009204 -0.023452 -0.085826 0.000000
0.320000 -0.009204 -0.023368 -0.010623 0.000000
0.322000 -0.009204 -0.026331 -0.043723 0.000000
0.324000 -0.009204 -0.024548 -0.132210 0.000000
0.326000 -0.009204 -0.022376 -0.160266 0.000000
0.328000 -0.009204 -0.024158 -0.160266 0.000000
0.330000 -0.009204 -0.024028 -0.096165 0.000000
0.332000 -0.009204 -0.027091 0.014915 0.000000
0.334000 -0.009204 -0.028750 0.064375 0.000000
0.336000 -0.009204 -0.028473 -0.113696 0.000000
0.338000 -0.010738 -0.027390 -0.113696 0.000000
0.340000 -0.010738 -0.027238 -0.210229 0.000000
0.342000 -0.010738 -0.027725 -0.219957 0.000000
0.344000 -0.012272 -0.028534 -0.069047 0.000000
0.346000 -0.012272 -0.023396 -0.069047 0.000000
0.348000 -0.012272 -0.023246 -0.001286 0.000000
0.350000 -0.012272 -0.013771 0.014930 0.000000
0.352000 -0.012272 -0.002508 -0.054267 0.000000
0.354000 -0.012272 0.003579 -0.109097 0.000000
0.356000 -0.012272 -0.002898 -0.109097 0.000000
0.358000 -0.012272 -0.002892 -0.111534 0.000000
0.360000 -0.012272 -0.016903 -0.051581 0.000000
0.362000 -0.012272 -0.026229 -0.126775 0.000000
0.364000 -0.013806 -0.015938 -0.126775 0.000000
0.366000 -0.013806 -0.015841 -0.180525 0.000000
0.368000 -0.013806 -0.003710 -0.156914 0.000000
0.370000 -0.013806 0.002308 -0.098756 0.000000
0.372000 -0.013806 0.001300 0.114411 0.000000
0.374000 -0.013806 -0.002324 0.114411 0.000000
0.376000 -0.013806 -0.002326 0.088958 0.000000
0.378000 -0.013806 -0.003815 -0.047144 0.000000
0.380000 -0.015340 0.000500 -0.155394 0.000000
0.382000 -0.015340 0.000854 -0.155394 0.000000
0.384000 -0.015340 0.000849 -0.139386 0.000000
0.386000 -0.015340 -0.011251 -0.058729 0.000000
0.388000 -0.015340 -0.022678 0.048471 0.000000
0.390000 -0.015340 -0.021890 -0.060801 0.000000
0.392000 -0.015340 -0.006670 -0.060801 0.000000
0.394000 -0.015340 -0.006587 -0.123111 0.000000
0.396000 -0.016874 0.008773 -0.100401 0.000000
0.398000 -0.016874 0.010161 -0.066585 0.000000
0.400000 -0.016874 -0.001637 0.051972 0.000000
0.402000 -0.016874 -0.013948 0.051972 0.000000
0.404000 -0.016874 -0.013943 -0.052418 0.000000
0.406000 -0.016874 -0.021616 -0.157247 0.000000
0.408000 -0.016874 -0.011724 -0.119114 0.000000
0.410000 -0.018408 -0.006336 -0.119114 0.000000
0.412000 -0.018408 -0.006272 -0.025567 0.000000
0.414000 -0.018408 -0.013673 0.059671 0.000000
0.416000 -0.016874 -0.026562 0.093568 0.000000
0.418000 -0.016874 -0.027866 -0.136396 0.000000
0.420000 -0.018408 -0.015306 -0.136396 0.000000
0.422000 -0.018408 -0.015184 -0.126274 0.000000
0.424000 -0.018408 -0.005273 -0.076300 0.000000
0.426000 -0.018408 -0.008092 -0.002648 0.000000
0.428000 -0.018408 -0.029758 -0.002648 0.000000
0.430000 -0.018408 -0.029678 -0.132174 0.000000
0.432000 -0.018408 -0.037496 -0.218862 0.000000
0.434000 -0.018408 -0.029805 -0.165580 0.000000
0.436000 -0.019942 -0.013541 -0.042874 0.000000
0.438000 -0.019942 -0.013237 -0.042874 0.000000
0.440000 -0.019942 -0.013127 0.034681 0.000000
0.442000 -0.018408 -0.025573 0.043066 0.000000
0.444000 -0.018408 -0.030936 -0.211242 0.000000
0.446000 -0.019942 -0.020029 -0.211242 0.000000
0.448000 -0.019942 -0.019891 -0.161221 0.000000
0.450000 -0.021476 -0.003899 -0.094624 0.000000
0.452000 -0.021476 0.002236 -0.039766 0.000000
0.454000 -0.019942 -0.006430 -0.204067 0.000000
0.456000 -0.019942 -0.017529 -0.204067 0.000000
0.458000 -0.019942 -0.017486 -0.245032 0.000000
0.460000 -0.021476 -0.017295 -0.162375 0.000000
0.462000 -0.021476 -0.002637 -0.092678 0.000000
0.464000 -0.021476 0.010886 0.037565 0.000000
0.466000 -0.021476 -0.001151 0.037565 0.000000
0.468000 -0.019942 -0.001155 -0.021705 0.000000
0.470000 -0.019942 -0.023897 -0.175094 0.000000
0.472000 -0.021476 -0.034221 -0.166849 0.000000
0.474000 -0.023010 -0.023185 -0.166849 0.000000
0.476000 -0.023010 -0.023052 -0.085228 0.000000
0.478000 -0.023010 -0.011489 -0.032963 0.000000
0.480000 -0.021476 -0.009824 -0.025129 0.000000
0.482000 -0.021476 -0.020475 -0.177095 0.000000
0.484000 -0.021476 -0.024779 -0.177095 0.000000
0.486000 -0.023010 -0.024670 -0.099915 0.000000
0.488000 -0.023010 -0.018985 -0.045953 0.000000
0.490000 -0.023010 -0.011163 -0.007653 0.000000
0.492000 -0.023010 -0.016908 -0.007653 0.000000
0.494000 -0.021476 -0.016814 -0.144068 0.000000
0.496000 -0.021476 -0.034758 -0.272358 0.000000
0.498000 -0.023010 -0.044840 -0.218593 0.000000
0.500000 -0.024544 -0.044537 -0.056300 0.000000
0.502000 -0.024544 -0.032329 -0.056300 0.000000
0.504000 -0.023010 -0.032107 0.026753 0.000000
0.506000 -0.023010 -0.020820 -0.004899 0.000000
0.508000 -0.021476 -0.020074 -0.140990 0.000000
0.510000 -0.023010 -0.024661 -0.140990 0.000000
0.512000 -0.024544 -0.024521 -0.139965 0.000000
0.514000 -0.024544 -0.026318 -0.078612 0.000000
0.516000 -0.024544 -0.025350 -0.039343 0.000000
0.518000 -0.023010 -0.024975 -0.180803 0.000000
0.520000 -0.023010 -0.028957 -0.180803 0.000000
0.522000 -0.023010 -0.028804 -0.171038 0.000000
0.524000 -0.023010 -0.028822 -0.099177 0.000000
0.526000 -0.024544 -0.022089 -0.011707 0.000000
0.528000 -0.024544 -0.019987 0.020821 0.000000
0.530000 -0.024544 -0.019688 0.020821 0.000000
0.532000 -0.023010 -0.019556 -0.078653 0.000000
0.534000 -0.023010 -0.025529 -0.198142 0.000000
0.536000 -0.024544 -0.031216 -0.115368 0.000000
0.538000 -0.024544 -0.028495 -0.115368 0.000000
0.540000 -0.024544 -0.028334 -0.072862 0.000000
0.542000 -0.024544 -0.025177 -0.021822 0.000000
0.544000 -0.024544 -0.022100 -0.044756 0.000000
0.546000 -0.023010 -0.018404 -0.161869 0.000000
0.548000 -0.024544 -0.013611 -0.161869 0.000000
0.550000 -0.024544 -0.013493 -0.109190 0.000000
0.552000 -0.024544 -0.007636 -0.049460 0.000000
0.554000 -0.024544 -0.005219 -0.004668 0.000000
0.556000 -0.024544 -0.008982 -0.004668 0.000000
0.558000 -0.024544 -0.008930 -0.115767 0.000000
0.560000 -0.024544 -0.010253 -0.146956 0.000000
0.562000 -0.024544 -0.009133 -0.108461 0.000000
0.564000 -0.024544 -0.005826 -0.053916 0.000000
0.566000 -0.024544 -0.008426 -0.053916 0.000000
0.568000 -0.024544 -0.008376 -0.015751 0.000000
0.570000 -0.024544 -0.013258 -0.076974 0.000000
0.572000 -0.024544 -0.016049 -0.109167 0.000000
0.574000 -0.024544 -0.009684 -0.109167 0.000000
0.576000 -0.024544 -0.009604 -0.052906 0.000000
0.578000 -0.024544 -0.003848 -0.022625 0.000000
0.580000 -0.024544 -0.004048 -0.001796 0.000000
0.582000 -0.024544 -0.010236 -0.152126 0.000000
0.584000 -0.024544 -0.018828 -0.152126 0.000000
0.586000 -0.024544 -0.018760 -0.170229 0.000000
0.588000 -0.024544 -0.024000 -0.123213 0.000000
0.590000 -0.024544 -0.021522 -0.046424 0.000000
0.592000 -0.024544 -0.019383 -0.017195 0.000000
0.594000 -0.024544 -0.020329 -0.017195 0.000000
0.596000 -0.024544 -0.020202 -0.067739 0.000000
0.598000 -0.024544 -0.022660 -0.123872 0.000000
0.600000 -0.024544 -0.023783 -0.076665 0.000000
0.602000 -0.024544 -0.020306 -0.076665 0.000000
0.604000 -0.024544 -0.020168 -0.067088 0.000000
0.606000 -0.024544 -0.019475 -0.062766 0.000000
0.608000 -0.024544 -0.020890 -0.180062 0.000000
0.610000 -0.024544 -0.024491 -0.134694 0.000000
0.612000 -0.024544 -0.023610 -0.134694 0.000000
0.614000 -0.024544 -0.023468 -0.078551 0.000000
0.616000 -0.024544 -0.019039 -0.038221 0.000000
0.618000 -0.024544 -0.015113 -0.036913 0.000000
0.620000 -0.023010 -0.017295 -0.036913 0.000000
0.622000 -0.023010 -0.017179 -0.126674 0.000000
0.624000 -0.024544 -0.023397 -0.145268 0.000000
0.626000 -0.024544 -0.028061 -0.136975 0.000000
0.628000 -0.024544 -0.028746 -0.080472 0.000000
0.630000 -0.024544 -0.026921 -0.080472 0.000000
0.632000 -0.023010 -0.026756 -0.076042 0.000000
0.634000 -0.023010 -0.024923 -0.122058 0.000000
0.636000 -0.023010 -0.025157 -0.106478 0.000000
0.638000 -0.023010 -0.021717 -0.106478 0.000000
0.640000 -0.024544 -0.021562 -0.068209 0.000000
0.642000 -0.024544 -0.018595 -0.051445 0.000000
0.644000 -0.023010 -0.017891 -0.041966 0.000000
0.646000 -0.023010 -0.018007 -0.168604 0.000000
0.648000 -0.023010 -0.023280 -0.168604 0.000000
0.650000 -0.023010 -0.023153 -0.148391 0.000000
0.652000 -0.023010 -0.025223 -0.114965 0.000000
0.654000 -0.023010 -0.023869 -0.061470 0.000000
0.656000 -0.023010 -0.018721 -0.051436 0.000000
0.658000 -0.023010 -0.014789 -0.051436 0.000000
0.660000 -0.023010 -0.014661 -0.091376 0.000000
0.662000 -0.023010 -0.013602 -0.097205 0.000000
0.664000 -0.023010 -0.013383 -0.063664 0.000000
0.666000 -0.023010 -0.014882 -0.063664 0.000000
0.668000 -0.023010 -0.014785 -0.061856 0.000000
0.670000 -0.023010 -0.018046 -0.051462 0.000000
0.672000 -0.021476 -0.018791 -0.123757 0.000000
0.674000 -0.021476 -0.019908 -0.101693 0.000000
0.676000 -0.021476 -0.019982 -0.101693 0.000000
0.678000 -0.021476 -0.019856 -0.083221 0.000000
0.680000 -0.021476 -0.020746 -0.052278 0.000000
0.682000 -0.021476 -0.020776 -0.034661 0.000000
0.684000 -0.021476 -0.020861 -0.034661 0.000000
0.686000 -0.021476 -0.020723 -0.092259 0.000000
0.688000 -0.021476 -0.022274 -0.097024 0.000000
0.690000 -0.021476 -0.021483 -0.058318 0.000000
0.692000 -0.021476 -0.021441 -0.049201 0.000000
0.694000 -0.021476 -0.022584 -0.049201 0.000000
0.696000 -0.021476 -0.022442 -0.050044 0.000000
0.698000 -0.019942 -0.023489 -0.098795 0.000000
0.700000 -0.019942 -0.024684 -0.109552 0.000000
0.702000 -0.019942 -0.023670 -0.109552 0.000000
0.704000 -0.019942 -0.023512 -0.075935 0.000000
0.706000 -0.019942 -0.021735 -0.060319 0.000000
0.708000 -0.019942 -0.020937 -0.035443 0.000000
0.710000 -0.019942 -0.020053 -0.076703 0.000000
0.712000 -0.019942 -0.020054 -0.076703 0.000000
0.714000 -0.019942 -0.019915 -0.071335 0.000000
0.716000 -0.019942 -0.020590 -0.091775 0.000000
0.718000 -0.019942 -0.019103 -0.075788 0.000000
0.720000 -0.019942 -0.018097 -0.065531 0.000000
0.722000 -0.018408 -0.016817 -0.065531 0.000000
0.724000 -0.018408 -0.016688 -0.093769 0.000000
0.726000 -0.018408 -0.016661 -0.102977 0.000000
0.728000 -0.018408 -0.015134 -0.040501 0.000000
0.730000 -0.018408 -0.013418 -0.040501 0.000000
0.732000 -0.018408 -0.013309 -0.041738 0.000000
0.734000 -0.018408 -0.014499 -0.031347 0.000000
0.736000 -0.016874 -0.016132 -0.135433 0.000000
0.738000 -0.016874 -0.020082 -0.117545 0.000000
0.740000 -0.016874 -0.023579 -0.117545 0.000000
0.742000 -0.016874 -0.023447 -0.118497 0.000000
0.744000 -0.016874 -0.022983 -0.084984 0.000000
0.746000 -0.016874 -0.020239 -0.030371 0.000000
0.748000 -0.016874 -0.016015 -0.030371 0.000000
0.750000 -0.015340 -0.015877 -0.044569 0.000000
0.752000 -0.015340 -0.014395 -0.066714 0.000000
0.754000 -0.015340 -0.013529 -0.071627 0.000000
0.756000 -0.015340 -0.014963 -0.076124 0.000000
0.758000 -0.015340 -0.017752 -0.076124 0.000000
0.760000 -0.015340 -0.017639 -0.065082 0.000000
0.762000 -0.015340 -0.019432 -0.072737 0.000000
0.764000 -0.015340 -0.020634 -0.084766 0.000000
0.766000 -0.015340 -0.019781 -0.084766 0.000000
0.768000 -0.013806 -0.019644 -0.082322 0.000000
0.770000 -0.013806 -0.016313 -0.048778 0.000000
0.772000 -0.013806 -0.014348 -0.030714 0.000000
0.774000 -0.013806 -0.014026 -0.065630 0.000000
0.776000 -0.013806 -0.015482 -0.065630 0.000000
0.778000 -0.012272 -0.015367 -0.094205 0.000000
0.780000 -0.012272 -0.018254 -0.098773 0.000000
0.782000 -0.012272 -0.021097 -0.067062 0.000000
0.784000 -0.012272 -0.021125 -0.057444 0.000000
0.786000 -0.012272 -0.021317 -0.057444 0.000000
0.788000 -0.012272 -0.021172 -0.045514 0.000000
0.790000 -0.010738 -0.022220 -0.089660 0.000000
0.792000 -0.010738 -0.023381 -0.084649 0.000000
0.794000 -0.010738 -0.025445 -0.084649 0.000000
0.796000 -0.010738 -0.025283 -0.064779 0.000000
0.798000 -0.010738 -0.024991 -0.062328 0.000000
0.800000 -0.010738 -0.025651 -0.053108 0.000000
0.802000 -0.009204 -0.024462 -0.091305 0.000000
0.804000 -0.009204 -0.023288 -0.091305 0.000000
0.806000 -0.009204 -0.023118 -0.090047 0.000000
0.808000 -0.009204 -0.023651 -0.095632 0.000000
0.810000 -0.009204 -0.022863 -0.072770 0.000000
0.812000 -0.009204 -0.023126 -0.072770 0.000000
0.814000 -0.007670 -0.022963 -0.048870 0.000000
0.816000 -0.007670 -0.022178 -0.052876 0.000000
0.818000 -0.007670 -0.020552 -0.070452 0.000000
0.820000 -0.007670 -0.020478 -0.064199 0.000000
0.822000 -0.007670 -0.020123 -0.064199 0.000000
0.824000 -0.006136 -0.019974 -0.056916 0.000000
0.826000 -0.006136 -0.022210 -0.053085 0.000000
0.828000 -0.006136 -0.023377 -0.075362 0.000000
0.830000 -0.006136 -0.020485 -0.075362 0.000000
0.832000 -0.006136 -0.020328 -0.109159 0.000000
0.834000 -0.006136 -0.018087 -0.092244 0.000000
0.836000 -0.004602 -0.016671 -0.049925 0.000000
0.838000 -0.004602 -0.017920 -0.026529 0.000000
0.840000 -0.004602 -0.017955 -0.026529 0.000000
0.842000 -0.004602 -0.017819 -0.021010 0.000000
0.844000 -0.003068 -0.015660 -0.044456 0.000000
0.846000 -0.003068 -0.013511 -0.082862 0.000000
0.848000 -0.003068 -0.014625 -0.069087 0.000000
0.850000 -0.003068 -0.017508 -0.069087 0.000000
0.852000 -0.003068 -0.017389 -0.054929 0.000000
0.854000 -0.001534 -0.021259 -0.052435 0.000000
0.856000 -0.001534 -0.018786 -0.053055 0.000000
0.858000 -0.001534 -0.013281 -0.053055 0.000000
0.860000 -0.001534 -0.013148 -0.047430 0.000000
0.862000 -0.001534 -0.008527 -0.055172 0.000000
0.864000 -0.000000 -0.007806 -0.023849 0.000000
0.866000 -0.000000 -0.011749 -0.011826 0.000000
0.868000 -0.000000 -0.014458 -0.011826 0.000000
0.870000 -0.000000 -0.014357 -0.036783 0.000000
0.872000 -0.000000 -0.014476 -0.079148 0.000000
0.874000 0.001534 -0.014206 -0.068802 0.000000
0.876000 0.001534 -0.015895 -0.068802 0.000000
0.878000 0.001534 -0.015779 -0.049028 0.000000
0.880000 0.003068 -0.019595 -0.020142 0.000000
0.882000 0.003068 -0.021927 -0.005713 0.000000
0.884000 0.003068 -0.018567 -0.041807 0.000000
0.886000 0.003068 -0.014604 -0.041807 0.000000
0.888000 0.003068 -0.014466 -0.056879 0.000000
0.890000 0.004602 -0.015989 -0.055419 0.000000
0.892000 0.004602 -0.019355 -0.040109 0.000000
0.894000 0.004602 -0.024600 -0.040109 0.000000
0.896000 0.006136 -0.024452 -0.037957 0.000000
0.898000 0.006136 -0.024521 -0.051139 0.000000
0.900000 0.006136 -0.018982 -0.069628 0.000000
0.902000 0.006136 -0.016290 -0.049668 0.000000
0.904000 0.007670 -0.017060 -0.049668 0.000000
0.906000 0.007670 -0.016918 -0.042592 0.000000
0.908000 0.007670 -0.022637 -0.020625 0.000000
0.910000 0.007670 -0.024580 -0.054931 0.000000
0.912000 0.009204 -0.018963 -0.093755 0.000000
0.914000 0.009204 -0.013892 -0.093755 0.000000
0.916000 0.009204 -0.013747 -0.090071 0.000000
0.918000 0.009204 -0.013233 -0.043661 0.000000
0.920000 0.010738 -0.017083 -0.021218 0.000000
0.922000 0.010738 -0.018240 -0.021218 0.000000
0.924000 0.010738 -0.018108 -0.013441 0.000000
0.926000 0.010738 -0.015838 -0.033650 0.000000
0.928000 0.012272 -0.009854 -0.074960 0.000000
0.930000 0.012272 -0.010737 -0.052580 0.000000
0.932000 0.012272 -0.015155 -0.052580 0.000000
0.934000 0.012272 -0.015045 -0.036427 0.000000
0.936000 0.013806 -0.023286 -0.006302 0.000000
0.938000 0.013806 -0.022014 -0.037213 0.000000
0.940000 0.013806 -0.016013 -0.037213 0.000000
0.942000 0.015340 -0.015865 -0.082958 0.000000
0.944000 0.015340 -0.012524 -0.083234 0.000000
0.946000 0.015340 -0.013700 -0.032806 0.000000
0.948000 0.015340 -0.020713 -0.000193 0.000000
0.950000 0.016874 -0.022970 -0.000193 0.000000
0.952000 0.016874 -0.022821 0.005129 0.000000
0.954000 0.016874 -0.018098 -0.008190 0.000000
0.956000 0.018408 -0.009281 -0.063132 0.000000
0.958000 0.018408 -0.009654 -0.063132 0.000000
0.960000 0.018408 -0.009541 -0.052145 0.000000
0.962000 0.018408 -0.017127 -0.028853 0.000000
0.964000 0.019942 -0.024452 -0.006186 0.000000
0.966000 0.019942 -0.020726 -0.029421 0.000000
0.968000 0.019942 -0.013070 -0.029421 0.000000
0.970000 0.021476 -0.012924 -0.053396 0.000000
0.972000 0.021476 -0.007237 -0.049230 0.000000
0.974000 0.021476 -0.007320 0.000112 0.000000
0.976000 0.021476 -0.016162 0.029711 0.000000
0.978000 0.023010 -0.020370 0.029711 0.000000
0.980000 0.023010 -0.020244 0.023198 0.000000
0.982000 0.023010 -0.018321 -0.069492 0.000000
0.984000 0.024544 -0.013865 -0.079821 0.000000
0.986000 0.024544 -0.015360 -0.079821 0.000000
0.988000 0.024544 -0.015229 -0.054877 0.000000
0.990000 0.026078 -0.022071 -0.007522 0.000000
0.992000 0.026078 -0.027295 0.036938 0.000000
0.994000 0.026078 -0.022585 0.003435 0.000000
0.996000 0.027612 -0.015043 0.003435 0.000000
0.998000 0.027612 -0.014881 -0.040465 0.000000
1.000000 0.027612 -0.010201 -0.063871 0.000000
1.002000 0.027612 -0.017155 -0.029164 0.000000
1.004000 0.029146 -0.024478 -0.029164 0.000000
1.006000 0.029146 -0.024335 0.008258 0.000000
1.008000 0.029146 -0.028207 0.019861 0.000000
1.010000 0.030680 -0.022401 -0.047367 0.000000
1.012000 0.030680 -0.010207 -0.064322 0.000000
1.014000 0.030680 -0.004966 -0.064322 0.000000
1.016000 0.032214 -0.004845 -0.044810 0.000000
1.018000 0.032214 -0.008524 -0.001640 0.000000
1.020000 0.032214 -0.015315 0.041652 0.000000
1.022000 0.033748 -0.014319 0.004351 0.000000
1.024000 0.033748 -0.007405 0.004351 0.000000
1.026000 0.033748 -0.007295 -0.044417 0.000000
1.028000 0.035282 -0.001608 -0.052999 0.000000
1.030000 0.035282 -0.005731 -0.012127 0.000000
1.032000 0.035282 -0.012150 -0.012127 0.000000
1.034000 0.036816 -0.012067 0.048452 0.000000
1.036000 0.036816 -0.017253 0.071232 0.000000
1.038000 0.036816 -0.014682 -0.025217 0.000000
1.040000 0.038350 -0.005886 -0.060602 0.000000
1.042000 0.038350 -0.003307 -0.060602 0.000000
1.044000 0.038350 -0.003216 -0.050026 0.000000
1.046000 0.039884 -0.010506 0.041476 0.000000
1.048000 0.039884 -0.019201 0.060268 0.000000
1.050000 0.039884 -0.019429 0.060268 0.000000
1.052000 0.041417 -0.019297 0.028196 0.000000
1.054000 0.041417 -0.010767 -0.022121 0.000000
1.056000 0.042951 -0.003325 -0.056788 0.000000
1.058000 0.042951 -0.007866 -0.020434 0.000000
1.060000 0.042951 -0.015648 -0.020434 0.000000
1.062000 0.044485 -0.015544 0.049962 0.000000
1.064000 0.044485 -0.023459 0.057542 0.000000
1.066000 0.044485 -0.014459 -0.013622 0.000000
1.068000 0.046019 -0.005494 -0.068515 0.000000
1.070000 0.046019 -0.002328 -0.068515 0.000000
1.072000 0.047553 -0.002233 -0.065652 0.000000
1.074000 0.047553 -0.007293 0.025784 0.000000
1.076000 0.047553 -0.018606 0.070484 0.000000
1.078000 0.049087 -0.021883 0.070484 0.000000
1.080000 0.049087 -0.021749 0.063946 0.000000
1.082000 0.049087 -0.014522 -0.001312 0.000000
1.084000 0.050621 -0.004710 -0.058723 0.000000
1.086000 0.050621 -0.006660 -0.040974 0.000000
1.088000 0.052155 -0.014874 -0.040974 0.000000
1.090000 0.052155 -0.014769 0.021849 0.000000
1.092000 0.052155 -0.024595 0.068230 0.000000
1.094000 0.053689 -0.018486 -0.014351 0.000000
1.096000 0.053689 -0.008454 -0.014351 0.000000
1.098000 0.053689 -0.008313 -0.070077 0.000000
1.100000 0.055223 -0.002822 -0.068606 0.000000
1.102000 0.055223 -0.002673 0.012678 0.000000
1.104000 0.056757 -0.012913 0.084718 0.000000
1.106000 0.056757 -0.017352 0.084718 0.000000
1.108000 0.056757 -0.017239 0.088922 0.000000
1.110000 0.058291 -0.013685 -0.027156 0.000000
1.112000 0.058291 -0.003361 -0.071012 0.000000
1.114000 0.058291 -0.002302 -0.078399 0.000000
1.116000 0.059825 -0.008485 -0.078399 0.000000
1.118000 0.059825 -0.008404 -0.005962 0.000000
1.120000 0.059825 -0.017956 0.104635 0.000000
1.122000 0.061359 -0.015650 0.079676 0.000000
1.124000 0.061359 -0.004995 0.079676 0.000000
1.126000 0.062893 -0.004878 0.002882 0.000000
1.128000 0.062893 0.005212 -0.043267 0.000000
1.130000 0.064427 -0.000473 0.002586 0.000000
1.132000 0.064427 -0.010663 0.069200 0.000000
1.134000 0.064427 -0.018319 0.069200 0.000000
1.136000 0.065961 -0.018217 0.109671 0.000000
1.138000 0.065961 -0.021639 0.015367 0.000000
1.140000 0.067495 -0.009615 -0.039672 0.000000
1.142000 0.067495 -0.004048 -0.039672 0.000000
1.144000 0.067495 -0.003936 -0.057009 0.000000
1.146000 0.069029 -0.006540 -0.015276 0.000000
1.148000 0.069029 -0.013325 0.127045 0.000000
1.150000 0.069029 -0.016775 0.123511 0.000000
1.152000 0.070563 -0.011985 0.123511 0.000000
1.154000 0.070563 -0.011857 0.045915 0.000000
1.156000 0.072097 -0.003568 -0.065986 0.000000
1.158000 0.072097 -0.005216 -0.042819 0.000000
1.160000 0.073631 -0.011476 -0.042819 0.000000
1.162000 0.073631 -0.011385 0.026768 0.000000
1.164000 0.073631 -0.019342 0.102314 0.000000
1.166000 0.075165 -0.019308 0.077172 0.000000
1.168000 0.075165 -0.008175 -0.000744 0.000000
1.170000 0.076699 -0.001081 -0.000744 0.000000
1.172000 0.076699 -0.000976 -0.036494 0.000000
1.174000 0.076699 -0.002056 0.006906 0.000000
1.176000 0.078233 -0.011676 0.093331 0.000000
1.178000 0.078233 -0.015779 0.135711 0.000000
1.180000 0.079767 -0.013400 0.135711 0.000000
1.182000 0.079767 -0.013277 0.094029 0.000000
1.184000 0.081301 -0.004659 -0.023272 0.000000
1.186000 0.081301 -0.000886 -0.064243 0.000000
1.188000 0.081301 -0.004658 -0.064243 0.000000
1.190000 0.082835 -0.004585 -0.021796 0.000000
1.192000 0.082835 -0.011974 0.127446 0.000000
1.194000 0.082835 -0.012612 0.125768 0.000000
1.196000 0.084369 -0.007666 0.061242 0.000000
1.198000 0.084369 -0.001105 0.061242 0.000000
1.200000 0.085903 -0.001015 -0.008275 0.000000
1.202000 0.085903 0.001343 -0.036261 0.000000
1.204000 0.087437 -0.003678 0.035560 0.000000
1.206000 0.087437 -0.007813 0.035560 0.000000
1.208000 0.087437 -0.007742 0.104277 0.000000
1.210000 0.088971 -0.009493 0.134080 0.000000
1.212000 0.088971 -0.005026 0.018227 0.000000
1.214000 0.090505 0.001333 -0.025045 0.000000
1.216000 0.090505 0.003627 -0.025045 0.000000
1.218000 0.092039 0.003681 -0.032338 0.000000
1.220000 0.092039 -0.001296 0.106626 0.000000
1.222000 0.092039 -0.003008 0.147390 0.000000
1.224000 0.093573 -0.000691 0.119021 0.000000
1.226000 0.093573 0.002604 0.119021 0.000000
1.228000 0.095107 0.002657 0.044802 0.000000
1.230000 0.095107 0.003356 -0.040329 0.000000
1.232000 0.096641 -0.000724 -0.002580 0.000000
1.234000 0.096641 -0.002897 -0.002580 0.000000
1.236000 0.096641 -0.002848 0.079936 0.000000
1.238000 0.098175 -0.004723 0.151454 0.000000
1.240000 0.098175 -0.003333 0.094003 0.000000
1.242000 0.099709 -0.002319 0.023042 0.000000
1.244000 0.099709 -0.003183 0.023042 0.000000
1.246000 0.101243 -0.003116 -0.038699 0.000000
1.248000 0.101243 -0.007581 0.034448 0.000000
1.250000 0.102777 -0.008553 0.103341 0.000000
1.252000 0.102777 -0.007493 0.103341 0.000000
1.254000 0.102777 -0.007398 0.138985 0.000000
1.256000 0.104311 -0.006167 0.051845 0.000000
1.258000 0.104311 -0.005414 0.004284 0.000000
1.260000 0.105845 -0.005831 -0.023259 0.000000
1.262000 0.105845 -0.006312 -0.023259 0.000000
1.264000 0.107379 -0.006227 0.014522 0.000000
1.266000 0.107379 -0.005769 0.150092 0.000000
1.268000 0.107379 -0.003016 0.125608 0.000000
1.270000 0.108913 -0.004350 0.125608 0.000000
1.272000 0.108913 -0.004272 0.069541 0.000000
1.274000 0.110447 -0.007227 -0.019364 0.000000
1.276000 0.110447 -0.004999 0.000888 0.000000
1.278000 0.111981 -0.001664 0.065450 0.000000
1.280000 0.111981 0.002637 0.065450 0.000000
1.282000 0.113515 0.002701 0.136211 0.000000
1.284000 0.113515 0.005055 0.119258 0.000000
1.286000 0.115049 -0.000818 0.055093 0.000000
1.288000 0.115049 -0.005168 -0.003294 0.000000
1.290000 0.115049 -0.007047 -0.003294 0.000000
1.292000 0.116583 -0.006978 -0.008358 0.000000
1.294000 0.116583 -0.005091 0.107380 0.000000
1.296000 0.118117 0.002539 0.156067 0.000000
1.298000 0.118117 0.005209 0.156067 0.000000
1.300000 0.119651 0.005258 0.135385 0.000000
1.302000 0.119651 0.000361 0.041624 0.000000
1.304000 0.121184 -0.001490 0.009172 0.000000
1.306000 0.121184 -0.000438 0.026110 0.000000
1.308000 0.121184 0.003841 0.026110 0.000000
1.310000 0.122718 0.003887 0.085068 0.000000
1.312000 0.122718 0.007571 0.146581 0.000000
1.314000 0.124252 0.004900 0.117706 0.000000
1.316000 0.124252 -0.000650 0.117706 0.000000
1.318000 0.125786 -0.000620 0.073947 0.000000
1.320000 0.125786 -0.006115 0.031688 0.000000
1.322000 0.127320 0.000010 0.070296 0.000000
1.324000 0.127320 0.008243 0.130635 0.000000
1.326000 0.127320 0.013798 0.130635 0.000000
1.328000 0.128854 0.013815 0.163498 0.000000
1.330000 0.128854 0.010168 0.102606 0.000000
1.332000 0.130388 0.000356 0.061778 0.000000
1.334000 0.130388 -0.003384 0.039569 0.000000
1.336000 0.131922 -0.002389 0.039569 0.000000
1.338000 0.131922 -0.002338 0.098076 0.000000
1.340000 0.133456 0.005206 0.146120 0.000000
1.342000 0.133456 0.008724 0.140088 0.000000
1.344000 0.134990 0.004403 0.140088 0.000000
1.346000 0.134990 0.004426 0.106724 0.000000
1.348000 0.136524 -0.006234 0.060027 0.000000
1.350000 0.136524 -0.006427 0.062053 0.000000
1.352000 0.138058 -0.000872 0.098305 0.000000
1.354000 0.138058 0.007900 0.098305 0.000000
1.356000 0.138058 0.007951 0.129235 0.000000
1.358000 0.139592 0.012640 0.123410 0.000000
1.360000 0.139592 0.004180 0.090212 0.000000
1.362000 0.141126 -0.003908 0.090212 0.000000
1.364000 0.141126 -0.003879 0.058452 0.000000
1.366000 0.142660 -0.009235 0.077745 0.000000
1.368000 0.142660 0.001206 0.113196 0.000000
1.370000 0.144194 0.011745 0.143541 0.000000
1.372000 0.144194 0.016147 0.143541 0.000000
1.374000 0.145728 0.016153 0.133109 0.000000
1.376000 0.145728 0.009895 0.088649 0.000000
1.378000 0.147262 0.001433 0.073282 0.000000
1.380000 0.147262 -0.000694 0.073282 0.000000
1.382000 0.147262 -0.000670 0.076256 0.000000
1.384000 0.148796 0.002595 0.124705 0.000000
1.386000 0.148796 0.013238 0.129605 0.000000
1.388000 0.150330 0.015897 0.116300 0.000000
1.390000 0.150330 0.010964 0.116300 0.000000
1.392000 0.151864 0.010948 0.095123 0.000000
1.394000 0.151864 0.001037 0.108243 0.000000
1.396000 0.153398 0.003029 0.117140 0.000000
1.398000 0.153398 0.009858 0.126732 0.000000
1.400000 0.153398 0.016635 0.126732 0.000000
1.402000 0.154932 0.016631 0.099750 0.000000
1.404000 0.154932 0.011450 0.096624 0.000000
1.406000 0.156466 0.005028 0.098200 0.000000
1.408000 0.156466 -0.001096 0.098200 0.000000
1.410000 0.158000 -0.001082 0.104454 0.000000
1.412000 0.158000 -0.004841 0.148351 0.000000
1.414000 0.159534 0.007595 0.142700 0.000000
1.416000 0.159534 0.018058 0.122247 0.000000
1.418000 0.161068 0.018735 0.122247 0.000000
1.420000 0.161068 0.018712 0.094897 0.000000
1.422000 0.162602 0.005106 0.110597 0.000000
1.424000 0.162602 -0.001659 0.131285 0.000000
1.426000 0.162602 -0.001163 0.131285 0.000000
1.428000 0.164136 -0.001128 0.148274 0.000000
1.430000 0.164136 0.004731 0.120226 0.000000
1.432000 0.165670 0.012251 0.105957 0.000000
1.434000 0.165670 0.012238 0.099533 0.000000
1.436000 0.167204 0.006349 0.099533 0.000000
1.438000 0.167204 0.006348 0.106010 0.000000
1.440000 0.168738 -0.003755 0.168209 0.000000
1.442000 0.168738 -0.001111 0.168162 0.000000
1.444000 0.170272 0.006615 0.168162 0.000000
1.446000 0.170272 0.006657 0.138648 0.000000
1.448000 0.171806 0.014524 0.086027 0.000000
1.450000 0.171806 0.009901 0.089232 0.000000
1.452000 0.173340 0.003776 0.125335 0.000000
1.454000 0.173340 -0.000098 0.125335 0.000000
1.456000 0.173340 -0.000074 0.164120 0.000000
1.458000 0.174874 -0.000747 0.179385 0.000000
1.460000 0.174874 0.009098 0.125432 0.000000
1.462000 0.176408 0.015124 0.086440 0.000000
1.464000 0.176408 0.015412 0.086440 0.000000
1.466000 0.177942 0.015395 0.107732 0.000000
1.468000 0.177942 0.006709 0.158111 0.000000
1.470000 0.179476 0.003578 0.190670 0.000000
1.472000 0.179476 0.005931 0.190670 0.000000
1.474000 0.181010 0.005945 0.200993 0.000000
1.476000 0.181010 0.011417 0.099992 0.000000
1.478000 0.182544 0.015485 0.083511 0.000000
1.480000 0.182544 0.015024 0.091089 0.000000
1.482000 0.182544 0.012385 0.091089 0.000000
1.484000 0.184078 0.012358 0.195866 0.000000
1.486000 0.184078 0.010178 0.233680 0.000000
1.488000 0.185612 0.012843 0.207015 0.000000
1.490000 0.185612 0.018316 0.207015 0.000000
1.492000 0.187146 0.018286 0.142177 0.000000
1.494000 0.187146 0.020455 0.073225 0.000000
1.496000 0.188680 0.018048 0.109956 0.000000
1.498000 0.188680 0.014683 0.173194 0.000000
1.500000 0.188680 0.013354 0.173194 0.000000
1.502000 0.190214 0.013316 0.242242 0.000000
1.504000 0.190214 0.013960 0.188907 0.000000
1.506000 0.191748 0.016415 0.117227 0.000000
1.508000 0.191748 0.018052 0.117227 0.000000
1.510000 0.193282 0.018006 0.074040 0.000000
1.512000 0.193282 0.015459 0.139820 0.000000
1.514000 0.194816 0.014589 0.209737 0.000000
1.516000 0.194816 0.014291 0.245196 0.000000
1.518000 0.196350 0.014171 0.245196 0.000000
1.520000 0.196350 0.014140 0.222517 0.000000
1.522000 0.197884 0.012883 0.099840 0.000000
1.524000 0.197884 0.016724 0.075359 0.000000
1.526000 0.197884 0.017313 0.112171 0.000000
1.528000 0.199418 0.017039 0.112171 0.000000
1.530000 0.199418 0.016994 0.246241 0.000000
1.532000 0.200951 0.014121 0.253224 0.000000
1.534000 0.200951 0.013213 0.192149 0.000000
1.536000 0.202485 0.011818 0.192149 0.000000
1.538000 0.202485 0.011788 0.112248 0.000000
1.540000 0.204019 0.009828 0.083826 0.000000
1.542000 0.204019 0.013377 0.151296 0.000000
1.544000 0.205553 0.017256 0.227044 0.000000
1.546000 0.205553 0.020386 0.227044 0.000000
1.548000 0.205553 0.020344 0.243911 0.000000
1.550000 0.207087 0.013721 0.156520 0.000000
1.552000 0.207087 0.009605 0.093944 0.000000
1.554000 0.208621 0.010827 0.093944 0.000000
1.556000 0.208621 0.010802 0.055918 0.000000
1.558000 0.210155 0.012481 0.180160 0.000000
1.560000 0.210155 0.016950 0.254297 0.000000
1.562000 0.210155 0.018604 0.266063 0.000000
1.564000 0.211689 0.017754 0.266063 0.000000
1.566000 0.213223 0.017707 0.130236 0.000000
1.568000 0.213223 0.013610 0.080502 0.000000
1.570000 0.213223 0.015509 0.083665 0.000000
1.572000 0.214757 0.019420 0.147257 0.000000
1.574000 0.214757 0.023903 0.147257 0.000000
1.576000 0.216291 0.023841 0.278062 0.000000
1.578000 0.216291 0.019113 0.252161 0.000000
1.580000 0.217825 0.013506 0.182206 0.000000
1.582000 0.217825 0.009810 0.182206 0.000000
1.584000 0.217825 0.009770 0.112045 0.000000
1.586000 0.219359 0.010599 0.122950 0.000000
1.588000 0.219359 0.018739 0.201253 0.000000
1.590000 0.220893 0.024775 0.268803 0.000000
1.592000 0.220893 0.025979 0.268803 0.000000
1.594000 0.222427 0.025905 0.222967 0.000000
1.596000 0.222427 0.014399 0.156064 0.000000
1.598000 0.223961 0.009851 0.107268 0.000000
1.600000 0.223961 0.012374 0.107268 0.000000
1.602000 0.223961 0.012339 0.101750 0.000000
1.604000 0.225495 0.016860 0.246164 0.000000
1.606000 0.225495 0.023096 0.288044 0.000000
1.608000 0.227029 0.022256 0.263281 0.000000
1.610000 0.227029 0.015250 0.263281 0.000000
1.612000 0.228563 0.015189 0.134682 0.000000
1.614000 0.228563 0.011321 0.107955 0.000000
1.616000 0.228563 0.015539 0.136564 0.000000
1.618000 0.230097 0.022661 0.136564 0.000000
1.620000 0.230097 0.022610 0.210506 0.000000
1.622000 0.231631 0.028223 0.278586 0.000000
1.624000 0.231631 0.022405 0.229422 0.000000
1.626000 0.233165 0.014527 0.169609 0.000000
1.628000 0.233165 0.010441 0.169609 0.000000
1.630000 0.234699 0.010393 0.128050 0.000000
1.632000 0.234699 0.018259 0.182999 0.000000
1.634000 0.234699 0.027372 0.250718 0.000000
1.636000 0.236233 0.032763 0.282823 0.000000
1.638000 0.236233 0.031685 0.282823 0.000000
1.640000 0.237767 0.031569 0.200780 0.000000
1.642000 0.237767 0.019788 0.154023 0.000000
1.644000 0.239301 0.016055 0.131999 0.000000
1.646000 0.239301 0.018905 0.131999 0.000000
1.648000 0.239301 0.018834 0.224203 0.000000
1.650000 0.240835 0.027734 0.270252 0.000000
1.652000 0.240835 0.031570 0.258874 0.000000
1.654000 0.242369 0.029015 0.220606 0.000000
1.656000 0.242369 0.022607 0.220606 0.000000
1.658000 0.243903 0.022499 0.148330 0.000000
1.660000 0.243903 0.021026 0.163560 0.000000
1.662000 0.243903 0.026618 0.216261 0.000000
1.664000 0.245437 0.034446 0.216261 0.000000
1.666000 0.245437 0.034333 0.252552 0.000000
1.668000 0.246971 0.037123 0.235348 0.000000
1.670000 0.246971 0.029654 0.197299 0.000000
1.672000 0.248505 0.023391 0.164897 0.000000
1.674000 0.248505 0.020560 0.164897 0.000000
1.676000 0.248505 0.020457 0.202127 0.000000
1.678000 0.250039 0.027399 0.257331 0.000000
1.680000 0.250039 0.035593 0.277686 0.000000
1.682000 0.251573 0.038885 0.277686 0.000000
1.684000 0.251573 0.038740 0.242085 0.000000
1.686000 0.253107 0.031904 0.182436 0.000000
1.688000 0.253107 0.023125 0.179591 0.000000
1.690000 0.253107 0.020472 0.196230 0.000000
1.692000 0.254641 0.023904 0.196230 0.000000
1.694000 0.254641 0.023810 0.263059 0.000000
1.696000 0.256175 0.029245 0.243755 0.000000
1.698000 0.256175 0.028798 0.211807 0.000000
1.700000 0.257709 0.024386 0.187656 0.000000
1.702000 0.257709 0.019916 0.187656 0.000000
1.704000 0.257709 0.019821 0.212948 0.000000
1.706000 0.259243 0.019091 0.245823 0.000000
1.708000 0.259243 0.023146 0.262277 0.000000
1.710000 0.260777 0.029212 0.262277 0.000000
1.712000 0.260777 0.029121 0.210940 0.000000
1.714000 0.260777 0.025718 0.194777 0.000000
1.716000 0.262311 0.021365 0.191301 0.000000
1.718000 0.262311 0.017669 0.205488 0.000000
1.720000 0.263845 0.017069 0.205488 0.000000
1.722000 0.263845 0.017001 0.264900 0.000000
1.724000 0.263845 0.023746 0.252594 0.000000
1.726000 0.265379 0.029968 0.220000 0.000000
1.728000 0.265379 0.031081 0.220000 0.000000
1.730000 0.266913 0.030969 0.185199 0.000000
1.732000 0.266913 0.025130 0.208657 0.000000
1.734000 0.268447 0.021217 0.254955 0.000000
1.736000 0.268447 0.021958 0.285564 0.000000
1.738000 0.268447 0.026166 0.285564 0.000000
1.740000 0.269981 0.026075 0.230360 0.000000
1.742000 0.269981 0.030337 0.184616 0.000000
1.744000 0.271515 0.029518 0.178556 0.000000
1.746000 0.271515 0.026505 0.198015 0.000000
1.748000 0.271515 0.023091 0.198015 0.000000
1.750000 0.273049 0.022982 0.294884 0.000000
1.752000 0.273049 0.023824 0.300657 0.000000
1.754000 0.274583 0.029822 0.255768 0.000000
1.756000 0.274583 0.036084 0.255768 0.000000
1.758000 0.274583 0.035957 0.177067 0.000000
1.760000 0.276117 0.032435 0.190958 0.000000
1.762000 0.276117 0.028591 0.241119 0.000000
1.764000 0.277651 0.025553 0.295746 0.000000
1.766000 0.277651 0.025926 0.295746 0.000000
1.768000 0.277651 0.025812 0.289567 0.000000
1.770000 0.279185 0.031649 0.223846 0.000000
1.772000 0.279185 0.036584 0.180732 0.000000
1.774000 0.280718 0.037694 0.180732 0.000000
1.776000 0.280718 0.037536 0.229092 0.000000
1.778000 0.280718 0.031263 0.291955 0.000000
1.780000 0.282252 0.028248 0.345561 0.000000
1.782000 0.282252 0.028964 0.326505 0.000000
1.784000 0.283786 0.032942 0.326505 0.000000
1.786000 0.283786 0.032811 0.183992 0.000000
1.788000 0.283786 0.035619 0.172576 0.000000
1.790000 0.285320 0.035721 0.208904 0.000000
1.792000 0.285320 0.033819 0.277637 0.000000
1.794000 0.286854 0.032016 0.277637 0.000000
1.796000 0.286854 0.031866 0.350985 0.000000
1.798000 0.286854 0.029934 0.285537 0.000000
1.800000 0.288388 0.031588 0.198327 0.000000
1.802000 0.288388 0.033564 0.198327 0.000000
1.804000 0.289922 0.033420 0.173839 0.000000
1.806000 0.289922 0.031034 0.252339 0.000000
1.808000 0.289922 0.029919 0.332859 0.000000
1.810000 0.291456 0.029186 0.358990 0.000000
1.812000 0.291456 0.028866 0.358990 0.000000
1.814000 0.292990 0.028741 0.229658 0.000000
1.816000 0.292990 0.029553 0.168349 0.000000
1.818000 0.292990 0.032906 0.161484 0.000000
1.820000 0.294524 0.034309 0.161484 0.000000
1.822000 0.294524 0.034163 0.310087 0.000000
1.824000 0.294524 0.030896 0.367141 0.000000
1.826000 0.296058 0.029086 0.352939 0.000000
1.828000 0.296058 0.029597 0.274023 0.000000
1.830000 0.297592 0.030902 0.274023 0.000000
1.832000 0.297592 0.030770 0.149078 0.000000
1.834000 0.297592 0.033622 0.188678 0.000000
1.836000 0.299126 0.036192 0.283916 0.000000
1.838000 0.299126 0.037954 0.283916 0.000000
1.840000 0.299126 0.037792 0.364784 0.000000
1.842000 0.300660 0.032214 0.295993 0.000000
1.844000 0.300660 0.030824 0.210955 0.000000
1.846000 0.302194 0.033088 0.160297 0.000000
1.848000 0.302194 0.036391 0.160297 0.000000
1.850000 0.302194 0.036234 0.255045 0.000000
1.852000 0.303728 0.038328 0.348749 0.000000
1.854000 0.303728 0.039404 0.385540 0.000000
1.856000 0.303728 0.037918 0.237779 0.000000
1.858000 0.305262 0.035050 0.237779 0.000000
1.860000 0.305262 0.034877 0.171326 0.000000
1.862000 0.306796 0.034814 0.157782 0.000000
1.864000 0.306796 0.037150 0.238424 0.000000
1.866000 0.306796 0.040156 0.238424 0.000000
1.868000 0.308330 0.039978 0.386580 0.000000
1.870000 0.308330 0.033364 0.355634 0.000000
1.872000 0.308330 0.029213 0.279393 0.000000
1.874000 0.309864 0.028832 0.197239 0.000000
1.876000 0.309864 0.031185 0.197239 0.000000
1.878000 0.311398 0.031046 0.208759 0.000000
1.880000 0.311398 0.034419 0.307823 0.000000
1.882000 0.311398 0.036585 0.385625 0.000000
1.884000 0.312932 0.036183 0.385625 0.000000
1.886000 0.312932 0.036023 0.296758 0.000000
1.888000 0.312932 0.029582 0.213091 0.000000
1.890000 0.314466 0.030282 0.175738 0.000000
1.892000 0.314466 0.033647 0.198642 0.000000
1.894000 0.314466 0.037108 0.198642 0.000000
1.896000 0.316000 0.036951 0.385417 0.000000
1.898000 0.316000 0.034852 0.397623 0.000000
1.900000 0.316000 0.032059 0.322330 0.000000
1.902000 0.317534 0.030299 0.322330 0.000000
1.904000 0.317534 0.030153 0.189584 0.000000
1.906000 0.319068 0.033279 0.187513 0.000000
1.908000 0.319068 0.037427 0.275488 0.000000
1.910000 0.319068 0.041634 0.375621 0.000000
1.912000 0.320602 0.042973 0.375621 0.000000
1.914000 0.320602 0.042785 0.340606 0.000000
1.916000 0.320602 0.034368 0.259617 0.000000
1.918000 0.322136 0.033233 0.203394 0.000000
1.920000 0.322136 0.036059 0.258397 0.000000
1.922000 0.322136 0.041368 0.258397 0.000000
1.924000 0.323670 0.041191 0.373774 0.000000
1.926000 0.323670 0.041496 0.411369 0.000000
1.928000 0.323670 0.039128 0.355631 0.000000
1.930000 0.325204 0.037205 0.355631 0.000000
1.932000 0.325204 0.037021 0.219365 0.000000
1.934000 0.325204 0.038942 0.201860 0.000000
1.936000 0.326738 0.042561 0.254824 0.000000
1.938000 0.326738 0.046190 0.415622 0.000000
1.940000 0.326738 0.045128 0.415622 0.000000
1.942000 0.328272 0.044914 0.367981 0.000000
1.944000 0.328272 0.038326 0.294241 0.000000
1.946000 0.328272 0.036892 0.232123 0.000000
1.948000 0.329806 0.039529 0.232123 0.000000
1.950000 0.329806 0.039341 0.253346 0.000000
1.952000 0.331340 0.043580 0.345424 0.000000
1.954000 0.331340 0.046850 0.411214 0.000000
1.956000 0.331340 0.046115 0.375489 0.000000
1.958000 0.331340 0.043320 0.375489 0.000000
1.960000 0.332874 0.043103 0.243437 0.000000
1.962000 0.332874 0.042289 0.231468 0.000000
1.964000 0.334408 0.044504 0.266051 0.000000
1.966000 0.334408 0.047215 0.266051 0.000000
1.968000 0.334408 0.046991 0.405841 0.000000
1.970000 0.335942 0.044613 0.385040 0.000000
1.972000 0.335942 0.041166 0.307483 0.000000
1.974000 0.335942 0.039382 0.244328 0.000000
1.976000 0.337476 0.041089 0.244328 0.000000
1.978000 0.337476 0.040892 0.270516 0.000000
1.980000 0.337476 0.044152 0.341121 0.000000
1.982000 0.339010 0.046615 0.402432 0.000000
1.984000 0.339010 0.046247 0.303129 0.000000
1.986000 0.339010 0.044013 0.303129 0.000000
1.988000 0.340544 0.043792 0.241613 0.000000
1.990000 0.340544 0.043052 0.236152 0.000000
1.992000 0.340544 0.043742 0.271264 0.000000
1.994000 0.342078 0.045285 0.271264 0.000000
1.996000 0.342078 0.045065 0.401169 0.000000
1.998000 0.342078 0.042710 0.393468 0.000000
2.000000 0.343612 0.041178 0.304433 0.000000
2.002000 0.343612 0.040970 0.233049 0.000000
2.004000 0.343612 0.043088 0.233049 0.000000
2.006000 0.345146 0.042884 0.270755 0.000000
2.008000 0.345146 0.043647 0.353715 0.000000
2.010000 0.345146 0.045491 0.410888 0.000000
2.012000 0.346680 0.045470 0.410888 0.000000
2.014000 0.346680 0.045248 0.301771 0.000000
2.016000 0.346680 0.041991 0.241833 0.000000
2.018000 0.346680 0.044540 0.235410 0.000000
2.020000 0.348214 0.047063 0.363658 0.000000
2.022000 0.348214 0.048987 0.363658 0.000000
2.024000 0.348214 0.048755 0.417651 0.000000
2.026000 0.349748 0.045134 0.395466 0.000000
2.028000 0.349748 0.042909 0.302138 0.000000
2.030000 0.349748 0.043704 0.302138 0.000000
2.032000 0.351282 0.043484 0.224153 0.000000
2.034000 0.351282 0.045623 0.275915 0.000000
2.036000 0.351282 0.047539 0.374935 0.000000
2.038000 0.352816 0.049522 0.438114 0.000000
2.040000 0.352816 0.049334 0.438114 0.000000
2.042000 0.352816 0.049093 0.303525 0.000000
2.044000 0.352816 0.047392 0.236924 0.000000
2.046000 0.354350 0.050589 0.228586 0.000000
2.048000 0.354350 0.051628 0.371958 0.000000
2.050000 0.354350 0.053060 0.371958 0.000000
2.052000 0.355884 0.052799 0.460892 0.000000
2.054000 0.355884 0.048935 0.430437 0.000000
2.056000 0.355884 0.045954 0.319149 0.000000
2.058000 0.357418 0.045338 0.319149 0.000000
2.060000 0.357418 0.045101 0.218487 0.000000
2.062000 0.357418 0.046768 0.278322 0.000000
2.064000 0.358952 0.048596 0.378584 0.000000
2.066000 0.358952 0.051286 0.430178 0.000000
2.068000 0.358952 0.045774 0.430178 0.000000
2.070000 0.358952 0.045532 0.323413 0.000000
2.072000 0.360485 0.040820 0.232169 0.000000
2.074000 0.360485 0.044717 0.222258 0.000000
2.076000 0.360485 0.048038 0.222258 0.000000
2.078000 0.362019 0.047809 0.377086 0.000000
2.080000 0.362019 0.048167 0.476583 0.000000
2.082000 0.362019 0.045414 0.446708 0.000000
2.084000 0.362019 0.042475 0.216647 0.000000
2.086000 0.363553 0.046292 0.216647 0.000000
2.088000 0.363553 0.046068 0.215354 0.000000
2.090000 0.363553 0.048705 0.272206 0.000000
2.092000 0.365087 0.050379 0.382447 0.000000
2.094000 0.365087 0.053300 0.382447 0.000000
2.096000 0.365087 0.053045 0.473872 0.000000
2.098000 0.365087 0.042314 0.346878 0.000000
2.100000 0.366621 0.039624 0.227385 0.000000
2.102000 0.366621 0.044569 0.256268 0.000000
2.104000 0.366621 0.047735 0.256268 0.000000
2.106000 0.368155 0.047509 0.397352 0.000000
2.108000 0.368155 0.048201 0.515074 0.000000
2.110000 0.368155 0.046659 0.478169 0.000000
2.112000 0.368155 0.042974 0.213475 0.000000
2.114000 0.369689 0.050173 0.213475 0.000000
2.116000 0.369689 0.049942 0.192038 0.000000
2.118000 0.369689 0.054709 0.262394 0.000000
2.120000 0.371223 0.057114 0.420856 0.000000
2.122000 0.371223 0.059791 0.420856 0.000000
2.124000 0.371223 0.059499 0.485080 0.000000
2.126000 0.371223 0.043990 0.344951 0.000000
2.128000 0.372757 0.040418 0.209538 0.000000
2.130000 0.372757 0.047998 0.246346 0.000000
2.132000 0.372757 0.054897 0.246346 0.000000
2.134000 0.374291 0.054646 0.428319 0.000000
2.136000 0.374291 0.058970 0.572532 0.000000
2.138000 0.374291 0.056299 0.510032 0.000000
2.140000 0.374291 0.044606 0.510032 0.000000
2.142000 0.374291 0.044339 0.211290 0.000000
2.144000 0.375825 0.051775 0.170813 0.000000
2.146000 0.375825 0.059186 0.242968 0.000000
2.148000 0.377359 0.064553 0.580644 0.000000
2.150000 0.377359 0.063071 0.580644 0.000000
2.152000 0.377359 0.062755 0.531675 0.000000
2.154000 0.377359 0.044794 0.371594 0.000000
2.156000 0.377359 0.037460 0.223777 0.000000
2.158000 0.378893 0.045869 0.223777 0.000000
2.160000 0.378893 0.045642 0.232152 0.000000
2.162000 0.378893 0.055155 0.422117 0.000000
2.164000 0.380427 0.063152 0.595888 0.000000
2.166000 0.380427 0.064690 0.362622 0.000000
2.168000 0.380427 0.049525 0.362622 0.000000
2.170000 0.380427 0.049227 0.222612 0.000000
2.172000 0.380427 0.050416 0.169273 0.000000
2.174000 0.381961 0.056847 0.241418 0.000000
2.176000 0.381961 0.062499 0.613815 0.000000
2.178000 0.381961 0.063600 0.613815 0.000000
2.180000 0.383495 0.063288 0.546795 0.000000
2.182000 0.383495 0.042247 0.360673 0.000000
2.184000 0.383495 0.031195 0.173737 0.000000
2.186000 0.383495 0.044414 0.173737 0.000000
2.188000 0.383495 0.044205 0.247393 0.000000
2.190000 0.385029 0.054526 0.451526 0.000000
2.192000 0.385029 0.064331 0.637690 0.000000
2.194000 0.385029 0.067805 0.357218 0.000000
2.196000 0.385029 0.051646 0.357218 0.000000
2.198000 0.386563 0.051337 0.220352 0.000000
2.200000 0.386563 0.052297 0.175093 0.000000
2.202000 0.386563 0.058919 0.250877 0.000000
2.204000 0.388097 0.063997 0.250877 0.000000
2.206000 0.388097 0.063687 0.660833 0.000000
2.208000 0.388097 0.065958 0.560010 0.000000
2.210000 0.388097 0.046418 0.357741 0.000000
2.212000 0.388097 0.033494 0.181538 0.000000
2.214000 0.388097 0.047442 0.181538 0.000000
2.216000 0.389631 0.047219 0.271013 0.000000
2.218000 0.389631 0.058113 0.493736 0.000000
2.220000 0.389631 0.070287 0.680345 0.000000
2.222000 0.391165 0.072048 0.680345 0.000000
2.224000 0.391165 0.071707 0.340390 0.000000
2.226000 0.391165 0.048480 0.217694 0.000000
2.228000 0.391165 0.054253 0.192718 0.000000
2.230000 0.391165 0.063886 0.501958 0.000000
2.232000 0.392699 0.075926 0.501958 0.000000
2.234000 0.392699 0.075580 0.686544 0.000000
2.236000 0.392699 0.076806 0.558381 0.000000
2.238000 0.392699 0.056651 0.340972 0.000000
2.240000 0.392699 0.043135 0.206045 0.000000
2.242000 0.392699 0.056141 0.206045 0.000000
2.244000 0.394233 0.055862 0.301964 0.000000
2.246000 0.394233 0.065020 0.524137 0.000000
2.248000 0.395767 0.077759 0.527829 0.000000
2.250000 0.395767 0.056146 0.527829 0.000000
2.252000 0.395767 0.055797 0.333067 0.000000
2.254000 0.395767 0.037652 0.225017 0.000000
2.256000 0.395767 0.047736 0.224881 0.000000
2.258000 0.395767 0.060187 0.542017 0.000000
2.260000 0.397301 0.074438 0.542017 0.000000
2.262000 0.397301 0.074121 0.631416 0.000000
2.264000 0.397301 0.074555 0.482346 0.000000
2.266000 0.397301 0.054786 0.234366 0.000000
2.268000 0.397301 0.059578 0.234366 0.000000
2.270000 0.397301 0.059251 0.242404 0.000000
2.272000 0.398835 0.066413 0.344546 0.000000
2.274000 0.398835 0.071540 0.546986 0.000000
2.276000 0.398835 0.081399 0.443628 0.000000
2.278000 0.398835 0.060845 0.443628 0.000000
2.280000 0.398835 0.060464 0.312714 0.000000
2.282000 0.398835 0.043354 0.245520 0.000000
2.284000 0.400369 0.050190 0.269973 0.000000
2.286000 0.400369 0.059838 0.269973 0.000000
2.288000 0.401903 0.059557 0.546690 0.000000
2.290000 0.401903 0.069303 0.569643 0.000000
2.292000 0.401903 0.068446 0.399971 0.000000
2.294000 0.401903 0.051928 0.263271 0.000000
2.296000 0.401903 0.055951 0.263271 0.000000
2.298000 0.401903 0.055648 0.293758 0.000000
2.300000 0.401903 0.062710 0.385608 0.000000
2.302000 0.403437 0.067941 0.516778 0.000000
2.304000 0.403437 0.073454 0.361246 0.000000
2.306000 0.403437 0.056902 0.361246 0.000000
2.308000 0.403437 0.056549 0.291279 0.000000
2.310000 0.403437 0.045475 0.293617 0.000000
2.312000 0.403437 0.051148 0.417618 0.000000
2.314000 0.404971 0.058492 0.417618 0.000000
2.316000 0.404971 0.058212 0.474375 0.000000
2.318000 0.404971 0.062205 0.434922 0.000000
2.320000 0.404971 0.057027 0.330144 0.000000
2.322000 0.404971 0.047572 0.318650 0.000000
2.324000 0.404971 0.053062 0.318650 0.000000
2.326000 0.404971 0.052788 0.365308 0.000000
2.328000 0.406505 0.058405 0.437946 0.000000
2.330000 0.406505 0.062731 0.380263 0.000000
2.332000 0.406505 0.056873 0.380263 0.000000
2.334000 0.406505 0.056558 0.303378 0.000000
2.336000 0.406505 0.045879 0.310037 0.000000
2.338000 0.406505 0.045618 0.360595 0.000000
2.340000 0.408039 0.052039 0.458184 0.000000
2.342000 0.408039 0.056416 0.458184 0.000000
2.344000 0.408039 0.056146 0.406121 0.000000
2.346000 0.408039 0.053429 0.329031 0.000000
2.348000 0.408039 0.049566 0.335966 0.000000
2.350000 0.408039 0.051345 0.335966 0.000000
2.352000 0.409573 0.051074 0.399109 0.000000
2.354000 0.409573 0.052896 0.446163 0.000000
2.356000 0.409573 0.055964 0.423851 0.000000
2.358000 0.409573 0.057831 0.289017 0.000000
2.360000 0.409573 0.055202 0.289017 0.000000
2.362000 0.409573 0.054903 0.293269 0.000000
2.364000 0.409573 0.051004 0.383143 0.000000
2.366000 0.411107 0.053036 0.487581 0.000000
2.368000 0.411107 0.055409 0.401432 0.000000
2.370000 0.411107 0.055709 0.401432 0.000000
2.372000 0.411107 0.055421 0.292113 0.000000
2.374000 0.411107 0.052112 0.265857 0.000000
2.376000 0.411107 0.051730 0.436447 0.000000
2.378000 0.411107 0.055946 0.436447 0.000000
2.380000 0.412641 0.055663 0.504849 0.000000
2.382000 0.412641 0.054741 0.482406 0.000000
2.384000 0.412641 0.053566 0.350886 0.000000
2.386000 0.412641 0.053921 0.249730 0.000000
2.388000 0.412641 0.058196 0.249730 0.000000
2.390000 0.412641 0.057900 0.371449 0.000000
2.392000 0.414175 0.060897 0.502053 0.000000
2.394000 0.414175 0.062485 0.454627 0.000000
2.396000 0.414175 0.057149 0.454627 0.000000
2.398000 0.414175 0.056832 0.303745 0.000000
2.400000 0.414175 0.054288 0.234380 0.000000
2.402000 0.414175 0.057847 0.261389 0.000000
2.404000 0.414175 0.060935 0.569488 0.000000
2.406000 0.415709 0.063191 0.569488 0.000000
2.408000 0.415709 0.062872 0.561260 0.000000
2.410000 0.415709 0.053327 0.427123 0.000000
2.412000 0.415709 0.047915 0.211303 0.000000
2.414000 0.415709 0.054739 0.211303 0.000000
2.416000 0.415709 0.054455 0.272370 0.000000
2.418000 0.415709 0.059639 0.461427 0.000000
2.420000 0.415709 0.066158 0.610862 0.000000
2.422000 0.417243 0.069571 0.390704 0.000000
2.424000 0.417243 0.058609 0.390704 0.000000
2.426000 0.417243 0.058268 0.233066 0.000000
2.428000 0.417243 0.057008 0.200906 0.000000
2.430000 0.417243 0.061256 0.531300 0.000000
2.432000 0.417243 0.070437 0.657987 0.000000
2.434000 0.417243 0.071159 0.657987 0.000000
2.436000 0.417243 0.070803 0.539150 0.000000
2.438000 0.417243 0.054431 0.336423 0.000000
2.440000 0.417243 0.048582 0.203442 0.000000
2.442000 0.417243 0.058044 0.203442 0.000000
2.444000 0.418777 0.057744 0.336707 0.000000
2.446000 0.418777 0.064640 0.598862 0.000000
2.448000 0.418777 0.076392 0.660342 0.000000
2.450000 0.418777 0.075229 0.279071 0.000000
2.452000 0.418777 0.066111 0.279071 0.000000
2.454000 0.418777 0.065728 0.187993 0.000000
2.456000 0.418777 0.067137 0.222172 0.000000
2.458000 0.418777 0.070889 0.667180 0.000000
2.460000 0.420311 0.083905 0.667180 0.000000
2.462000 0.420311 0.083505 0.673139 0.000000
2.464000 0.420311 0.072339 0.426169 0.000000
2.466000 0.420311 0.052574 0.242450 0.000000
2.468000 0.420311 0.052361 0.255045 0.000000
2.470000 0.420311 0.062572 0.255045 0.000000
2.472000 0.420311 0.062254 0.500967 0.000000
2.474000 0.420311 0.073958 0.710313 0.000000
2.476000 0.420311 0.085303 0.363240 0.000000
2.478000 0.420311 0.065233 0.363240 0.000000
2.480000 0.420311 0.064830 0.202156 0.000000
2.482000 0.420311 0.062320 0.189861 0.000000
2.484000 0.420311 0.068278 0.321421 0.000000
2.486000 0.421845 0.073075 0.717813 0.000000
2.488000 0.421845 0.081883 0.717813 0.000000
2.490000 0.421845 0.081484 0.539219 0.000000
2.492000 0.421845 0.060807 0.305127 0.000000
2.494000 0.421845 0.047063 0.225819 0.000000
2.496000 0.421845 0.059272 0.374748 0.000000
2.498000 0.421845 0.066607 0.374748 0.000000
2.500000 0.421845 0.066282 0.628028 0.000000
2.502000 0.421845 0.081589 0.667083 0.000000
2.504000 0.421845 0.083846 0.261233 0.000000
2.506000 0.421845 0.067470 0.261233 0.000000
2.508000 0.421845 0.067051 0.202444 0.000000
2.510000 0.421845 0.066951 0.272887 0.000000
2.512000 0.421845 0.071427 0.649606 0.000000
2.514000 0.423379 0.083899 0.614228 0.000000
2.516000 0.423379 0.079811 0.614228 0.000000
2.518000 0.423379 0.079382 0.384436 0.000000
2.520000 0.421845 0.053838 0.245635 0.000000
2.522000 0.421845 0.048954 0.320240 0.000000
2.524000 0.421845 0.058671 0.320240 0.000000
2.526000 0.423379 0.058362 0.509711 0.000000
2.528000 0.423379 0.065354 0.617770 0.000000
2.530000 0.423379 0.075246 0.512555 0.000000
2.532000 0.423379 0.066341 0.242182 0.000000
2.534000 0.423379 0.062563 0.242182 0.000000
2.536000 0.423379 0.062201 0.267044 0.000000
2.538000 0.423379 0.065085 0.385393 0.000000
2.540000 0.423379 0.067768 0.557845 0.000000
2.542000 0.423379 0.071919 0.557845 0.000000
2.544000 0.423379 0.071549 0.419311 0.000000
2.546000 0.423379 0.055913 0.311742 0.000000
2.548000 0.423379 0.044734 0.272243 0.000000
2.550000 0.423379 0.048408 0.433981 0.000000
2.552000 0.423379 0.055719 0.433981 0.000000
2.554000 0.423379 0.055443 0.522501 0.000000
2.556000 0.423379 0.062986 0.486291 0.000000
2.558000 0.423379 0.062089 0.303263 0.000000
2.560000 0.423379 0.055007 0.307409 0.000000
2.562000 0.423379 0.059595 0.307409 0.000000
2.564000 0.423379 0.059281 0.368383 0.000000
2.566000 0.423379 0.063937 0.457352 0.000000
2.568000 0.424913 0.066480 0.404160 0.000000
2.570000 0.424913 0.061444 0.404160 0.000000
2.572000 0.424913 0.061093 0.337413 0.000000
2.574000 0.423379 0.051146 0.331506 0.000000
2.576000 0.423379 0.051252 0.412207 0.000000
2.578000 0.423379 0.056165 0.445026 0.000000
2.580000 0.424913 0.060033 0.445026 0.000000
2.582000 0.424913 0.059729 0.414887 0.000000
2.584000 0.424913 0.058775 0.359809 0.000000
2.586000 0.424913 0.055732 0.361020 0.000000
2.588000 0.424913 0.057346 0.361020 0.000000
2.590000 0.424913 0.057034 0.402503 0.000000
2.592000 0.424913 0.059782 0.441229 0.000000
2.594000 0.424913 0.061086 0.374182 0.000000
2.596000 0.424913 0.059683 0.345835 0.000000
2.598000 0.424913 0.057210 0.345835 0.000000
2.600000 0.424913 0.056883 0.373385 0.000000
2.602000 0.424913 0.054030 0.410648 0.000000
2.604000 0.424913 0.056496 0.401184 0.000000
2.606000 0.424913 0.059182 0.401184 0.000000
2.608000 0.424913 0.058874 0.367954 0.000000
2.610000 0.424913 0.056388 0.341381 0.000000
2.612000 0.424913 0.054676 0.438926 0.000000
2.614000 0.424913 0.056106 0.448983 0.000000
2.616000 0.424913 0.058865 0.448983 0.000000
2.618000 0.424913 0.058562 0.427469 0.000000
2.620000 0.424913 0.057756 0.349264 0.000000
2.622000 0.424913 0.056353 0.334396 0.000000
2.624000 0.424913 0.057433 0.414043 0.000000
2.626000 0.424913 0.059691 0.414043 0.000000
2.628000 0.424913 0.059374 0.490918 0.000000
2.630000 0.424913 0.057752 0.448580 0.000000
2.632000 0.424913 0.056773 0.301587 0.000000
2.634000 0.424913 0.056493 0.301587 0.000000
2.636000 0.424913 0.056180 0.313022 0.000000
2.638000 0.424913 0.055952 0.378862 0.000000
2.640000 0.424913 0.057913 0.514701 0.000000
2.642000 0.424913 0.055496 0.405113 0.000000
2.644000 0.424913 0.054037 0.405113 0.000000
2.646000 0.424913 0.053737 0.317350 0.000000
2.648000 0.424913 0.052755 0.283356 0.000000
2.650000 0.424913 0.054490 0.440327 0.000000
2.652000 0.424913 0.058943 0.440327 0.000000
2.654000 0.424913 0.058640 0.561719 0.000000
2.656000 0.424913 0.057526 0.472806 0.000000
2.658000 0.424913 0.054879 0.276774 0.000000
2.660000 0.423379 0.057027 0.286964 0.000000
2.662000 0.423379 0.059852 0.286964 0.000000
2.664000 0.423379 0.059535 0.377627 0.000000
2.666000 0.424913 0.061403 0.534388 0.000000
2.668000 0.424913 0.064432 0.414441 0.000000
2.670000 0.423379 0.060025 0.414441 0.000000
2.672000 0.423379 0.059688 0.303915 0.000000
2.674000 0.423379 0.056105 0.251588 0.000000
2.676000 0.423379 0.056857 0.472409 0.000000
2.678000 0.423379 0.063802 0.608638 0.000000
2.680000 0.423379 0.067395 0.608638 0.000000
2.682000 0.423379 0.067058 0.519795 0.000000
2.684000 0.423379 0.060690 0.333183 0.000000
2.686000 0.423379 0.056141 0.272630 0.000000
2.688000 0.423379 0.059761 0.383293 0.000000
2.690000 0.423379 0.065063 0.383293 0.000000
2.692000 0.423379 0.064728 0.555429 0.000000
2.694000 0.423379 0.069993 0.416719 0.000000
2.696000 0.423379 0.062188 0.277429 0.000000
2.698000 0.423379 0.059892 0.277429 0.000000
2.700000 0.423379 0.059539 0.235570 0.000000
2.702000 0.423379 0.060531 0.309096 0.000000
2.704000 0.423379 0.063920 0.637762 0.000000
2.706000 0.423379 0.068096 0.540252 0.000000
2.708000 0.423379 0.066981 0.540252 0.000000
2.710000 0.423379 0.066622 0.312040 0.000000
2.712000 0.421845 0.058915 0.247036 0.000000
2.714000 0.421845 0.060962 0.388537 0.000000
2.716000 0.421845 0.066353 0.388537 0.000000
2.718000 0.421845 0.066005 0.579566 0.000000
2.720000 0.421845 0.071689 0.604426 0.000000
2.722000 0.421845 0.072985 0.263868 0.000000
2.724000 0.421845 0.067545 0.223979 0.000000
2.726000 0.421845 0.067732 0.223979 0.000000
2.728000 0.421845 0.067345 0.318399 0.000000
2.730000 0.421845 0.067724 0.518635 0.000000
2.732000 0.421845 0.072157 0.534707 0.000000
2.734000 0.421845 0.066678 0.534707 0.000000
2.736000 0.421845 0.066297 0.298991 0.000000
2.738000 0.420311 0.054468 0.218652 0.000000
2.740000 0.420311 0.055000 0.417192 0.000000
2.742000 0.420311 0.060821 0.627478 0.000000
2.744000 0.421845 0.068553 0.627478 0.000000
2.746000 0.421845 0.068221 0.599887 0.000000
2.748000 0.420311 0.064977 0.366481 0.000000
2.750000 0.420311 0.057767 0.228031 0.000000
2.752000 0.420311 0.061971 0.339779 0.000000
2.754000 0.420311 0.066203 0.339779 0.000000
2.756000 0.420311 0.065856 0.555810 0.000000
2.758000 0.420311 0.070819 0.499409 0.000000
2.760000 0.420311 0.064922 0.262957 0.000000
2.762000 0.420311 0.059542 0.262957 0.000000
2.764000 0.418777 0.059177 0.213278 0.000000
2.766000 0.418777 0.060314 0.254723 0.000000
2.768000 0.418777 0.062548 0.619070 0.000000
2.770000 0.418777 0.071723 0.574561 0.000000
2.772000 0.418777 0.070763 0.574561 0.000000
2.774000 0.418777 0.070390 0.343326 0.000000
2.776000 0.418777 0.057582 0.213037 0.000000
2.778000 0.418777 0.060369 0.363788 0.000000
2.780000 0.418777 0.063546 0.363788 0.000000
2.782000 0.418777 0.063202 0.605627 0.000000
2.784000 0.418777 0.069725 0.615083 0.000000
2.786000 0.418777 0.072337 0.221269 0.000000
2.788000 0.417243 0.063054 0.204928 0.000000
2.790000 0.417243 0.063391 0.204928 0.000000
2.792000 0.417243 0.063018 0.278378 0.000000
2.794000 0.417243 0.063310 0.518878 0.000000
2.796000 0.417243 0.066527 0.515983 0.000000
2.798000 0.417243 0.061505 0.515983 0.000000
2.800000 0.417243 0.061151 0.303083 0.000000
2.802000 0.415709 0.049473 0.190768 0.000000
2.804000 0.415709 0.050017 0.409801 0.000000
2.806000 0.415709 0.056204 0.635959 0.000000
2.808000 0.415709 0.069118 0.635959 0.000000
2.810000 0.415709 0.068804 0.564187 0.000000
2.812000 0.415709 0.069475 0.406554 0.000000
2.814000 0.415709 0.059724 0.203193 0.000000
2.816000 0.414175 0.063566 0.319651 0.000000
2.818000 0.414175 0.066943 0.319651 0.000000
2.820000 0.414175 0.066585 0.559285 0.000000
2.822000 0.414175 0.071848 0.483533 0.000000
2.824000 0.414175 0.063062 0.257105 0.000000
2.826000 0.414175 0.055056 0.257105 0.000000
2.828000 0.414175 0.054697 0.196532 0.000000
2.830000 0.412641 0.055493 0.243426 0.000000
2.832000 0.414175 0.060030 0.656952 0.000000
2.834000 0.414175 0.068901 0.548624 0.000000
2.836000 0.412641 0.068823 0.548624 0.000000
2.838000 0.412641 0.068463 0.353958 0.000000
2.840000 0.412641 0.054079 0.208648 0.000000
2.842000 0.411107 0.058670 0.392473 0.000000
2.844000 0.412641 0.062184 0.392473 0.000000
2.846000 0.412641 0.061851 0.584644 0.000000
2.848000 0.412641 0.068627 0.575787 0.000000
2.850000 0.411107 0.073048 0.234946 0.000000
2.852000 0.411107 0.063283 0.204688 0.000000
2.854000 0.411107 0.063883 0.204688 0.000000
2.856000 0.411107 0.063507 0.290981 0.000000
2.858000 0.411107 0.064812 0.628304 0.000000
2.860000 0.411107 0.070327 0.472156 0.000000
2.862000 0.409573 0.067197 0.472156 0.000000
2.864000 0.409573 0.066818 0.293005 0.000000
2.866000 0.409573 0.054576 0.198236 0.000000
2.868000 0.409573 0.053825 0.441862 0.000000
2.870000 0.409573 0.058419 0.599525 0.000000
2.872000 0.409573 0.066466 0.599525 0.000000
2.874000 0.408039 0.066141 0.515344 0.000000
2.876000 0.408039 0.067559 0.351365 0.000000
2.878000 0.408039 0.058795 0.216395 0.000000
2.880000 0.406505 0.061468 0.370502 0.000000
2.882000 0.406505 0.064237 0.370502 0.000000
2.884000 0.408039 0.063890 0.533640 0.000000
2.886000 0.406505 0.068256 0.411353 0.000000
2.888000 0.406505 0.061329 0.256799 0.000000
2.890000 0.406505 0.054515 0.256799 0.000000
2.892000 0.404971 0.054161 0.214529 0.000000
2.894000 0.404971 0.054568 0.291354 0.000000
2.896000 0.404971 0.057731 0.578273 0.000000
2.898000 0.404971 0.064568 0.439396 0.000000
2.900000 0.404971 0.063019 0.439396 0.000000
2.902000 0.404971 0.062673 0.298435 0.000000
2.904000 0.403437 0.051538 0.246794 0.000000
2.906000 0.403437 0.055414 0.427241 0.000000
2.908000 0.403437 0.058966 0.427241 0.000000
2.910000 0.403437 0.058652 0.559674 0.000000
2.912000 0.403437 0.064756 0.479862 0.000000
2.914000 0.401903 0.065108 0.241085 0.000000
2.916000 0.401903 0.059408 0.227438 0.000000
2.918000 0.401903 0.061049 0.227438 0.000000
2.920000 0.401903 0.060696 0.371744 0.000000
2.922000 0.401903 0.060528 0.515435 0.000000
2.924000 0.401903 0.063337 0.357612 0.000000
2.926000 0.400369 0.058061 0.357612 0.000000
2.928000 0.400369 0.057711 0.264699 0.000000
2.930000 0.400369 0.049804 0.228964 0.000000
2.932000 0.400369 0.051246 0.488404 0.000000
2.934000 0.400369 0.055204 0.520998 0.000000
2.936000 0.398835 0.060480 0.520998 0.000000
2.938000 0.398835 0.060175 0.399451 0.000000
2.940000 0.398835 0.056289 0.235782 0.000000
2.942000 0.397301 0.053778 0.276437 0.000000
2.944000 0.397301 0.056781 0.435662 0.000000
2.946000 0.397301 0.058996 0.435662 0.000000
2.948000 0.397301 0.058680 0.502673 0.000000
2.950000 0.397301 0.062001 0.307898 0.000000
2.952000 0.395767 0.053947 0.246780 0.000000
2.954000 0.395767 0.050720 0.246780 0.000000
2.956000 0.395767 0.050397 0.247655 0.000000
2.958000 0.395767 0.052461 0.377738 0.000000
2.960000 0.395767 0.054705 0.464313 0.000000
2.962000 0.394233 0.056141 0.324644 0.000000
2.964000 0.394233 0.052292 0.324644 0.000000
2.966000 0.394233 0.051980 0.267607 0.000000
2.968000 0.392699 0.046138 0.350892 0.000000
2.970000 0.392699 0.050035 0.459134 0.000000
2.972000 0.392699 0.054079 0.459134 0.000000
2.974000 0.392699 0.053799 0.461577 0.000000
2.976000 0.391165 0.056109 0.362667 0.000000
2.978000 0.391165 0.055006 0.265327 0.000000
2.980000 0.391165 0.054378 0.315353 0.000000
2.982000 0.391165 0.057293 0.315353 0.000000
2.984000 0.391165 0.056978 0.440064 0.000000
2.986000 0.389631 0.057012 0.406725 0.000000
2.988000 0.389631 0.055791 0.292734 0.000000
2.990000 0.389631 0.051922 0.292734 0.000000
2.992000 0.388097 0.051601 0.267077 0.000000
2.994000 0.388097 0.048540 0.298163 0.000000
2.996000 0.388097 0.051251 0.463978 0.000000
2.998000 0.388097 0.055804 0.410010 0.000000
3.000000 0.386563 0.056661 0.410010 0.000000
3.002000 0.386563 0.056354 0.301259 0.000000
3.004000 0.386563 0.051541 0.288520 0.000000
3.006000 0.385029 0.052589 0.371383 0.000000
3.008000 0.385029 0.054858 0.458430 0.000000
3.010000 0.385029 0.058269 0.458430 0.000000
3.012000 0.385029 0.057962 0.407717 0.000000
3.014000 0.383495 0.057851 0.282617 0.000000
3.016000 0.383495 0.054370 0.282594 0.000000
3.018000 0.383495 0.054935 0.282594 0.000000
3.020000 0.383495 0.054611 0.374467 0.000000
3.022000 0.381961 0.054832 0.416849 0.000000
3.024000 0.381961 0.056359 0.355058 0.000000
3.026000 0.381961 0.054887 0.287731 0.000000
3.028000 0.380427 0.052212 0.287731 0.000000
3.030000 0.380427 0.051893 0.290184 0.000000
3.032000 0.380427 0.050036 0.421604 0.000000
3.034000 0.380427 0.051602 0.410236 0.000000
3.036000 0.378893 0.055368 0.410236 0.000000
3.038000 0.378893 0.055071 0.357427 0.000000
3.040000 0.378893 0.053034 0.283570 0.000000
3.042000 0.377359 0.050158 0.319710 0.000000
3.044000 0.377359 0.051093 0.415565 0.000000
3.046000 0.377359 0.053804 0.415565 0.000000
3.048000 0.377359 0.053511 0.424972 0.000000
3.050000 0.375825 0.055532 0.291364 0.000000
3.052000 0.375825 0.052022 0.281376 0.000000
3.054000 0.375825 0.050431 0.281376 0.000000
3.056000 0.374291 0.050123 0.300650 0.000000
3.058000 0.374291 0.050256 0.393030 0.000000
3.060000 0.374291 0.052444 0.358007 0.000000
3.062000 0.372757 0.054087 0.300053 0.000000
3.064000 0.372757 0.052863 0.300053 0.000000
3.066000 0.372757 0.052554 0.271313 0.000000
3.068000 0.372757 0.049917 0.386888 0.000000
3.070000 0.371223 0.051873 0.406068 0.000000
3.072000 0.371223 0.054703 0.369293 0.000000
3.074000 0.371223 0.056527 0.369293 0.000000
3.076000 0.369689 0.056218 0.304395 0.000000
3.078000 0.369689 0.053489 0.303210 0.000000
3.080000 0.369689 0.053391 0.373446 0.000000
3.082000 0.368155 0.054189 0.373446 0.000000
3.084000 0.368155 0.053879 0.404489 0.000000
3.086000 0.368155 0.054052 0.310958 0.000000
3.088000 0.366621 0.053156 0.271076 0.000000
3.090000 0.366621 0.052121 0.294747 0.000000
3.092000 0.366621 0.052377 0.294747 0.000000
3.094000 0.365087 0.052067 0.355937 0.000000
3.096000 0.365087 0.051560 0.385812 0.000000
3.098000 0.365087 0.053632 0.304567 0.000000
3.100000 0.363553 0.053054 0.304567 0.000000
3.102000 0.363553 0.052744 0.269668 0.000000
3.104000 0.363553 0.049266 0.334010 0.000000
3.106000 0.362019 0.050183 0.411005 0.000000
3.108000 0.362019 0.051815 0.397213 0.000000
3.110000 0.362019 0.053901 0.397213 0.000000
3.112000 0.360485 0.053605 0.317071 0.000000
3.114000 0.360485 0.052422 0.274014 0.000000
3.116000 0.358952 0.050933 0.336103 0.000000
3.118000 0.358952 0.051057 0.336103 0.000000
3.120000 0.358952 0.050757 0.404251 0.000000
3.122000 0.358952 0.049838 0.332317 0.000000
3.124000 0.357418 0.050080 0.266630 0.000000
3.126000 0.357418 0.049095 0.260940 0.000000
3.128000 0.355884 0.049242 0.260940 0.000000
3.130000 0.355884 0.048948 0.318870 0.000000
3.132000 0.355884 0.048597 0.416058 0.000000
3.134000 0.355884 0.049234 0.346189 0.000000
3.136000 0.354350 0.049940 0.268047 0.000000
3.138000 0.354350 0.048860 0.268047 0.000000
3.140000 0.352816 0.048568 0.251445 0.000000
3.142000 0.352816 0.046377 0.388523 0.000000
3.144000 0.352816 0.047380 0.410870 0.000000
3.146000 0.351282 0.049343 0.410870 0.000000
3.148000 0.351282 0.049070 0.344904 0.000000
3.150000 0.349748 0.049043 0.245310 0.000000
3.152000 0.349748 0.048499 0.286760 0.000000
3.154000 0.349748 0.049468 0.366142 0.000000
3.156000 0.349748 0.051054 0.366142 0.000000
3.158000 0.348214 0.050767 0.433525 0.000000
3.160000 0.348214 0.051176 0.280704 0.000000
3.162000 0.346680 0.051256 0.244156 0.000000
3.164000 0.346680 0.050422 0.244156 0.000000
3.166000 0.345146 0.050119 0.263264 0.000000
3.168000 0.345146 0.048575 0.427635 0.000000
3.170000 0.345146 0.051819 0.380845 0.000000
3.172000 0.343612 0.054666 0.299320 0.000000
3.174000 0.343612 0.055275 0.299320 0.000000
3.176000 0.342078 0.054961 0.232485 0.000000
3.178000 0.342078 0.051941 0.336638 0.000000
3.180000 0.342078 0.052549 0.427381 0.000000
3.182000 0.342078 0.054518 0.427381 0.000000
3.184000 0.340544 0.054212 0.394663 0.000000
3.186000 0.340544 0.054225 0.228796 0.000000
3.188000 0.339010 0.051075 0.235310 0.000000
3.190000 0.339010 0.050567 0.305755 0.000000
3.192000 0.339010 0.052483 0.305755 0.000000
3.194000 0.337476 0.052177 0.408153 0.000000
3.196000 0.337476 0.053123 0.316234 0.000000
3.198000 0.335942 0.052502 0.233083 0.000000
3.200000 0.335942 0.050941 0.230302 0.000000
3.202000 0.334408 0.050280 0.230302 0.000000
3.204000 0.334408 0.049970 0.393250 0.000000
3.206000 0.334408 0.051068 0.438263 0.000000
3.208000 0.332874 0.051979 0.314474 0.000000
3.210000 0.332874 0.052913 0.314474 0.000000
3.212000 0.331340 0.052610 0.244565 0.000000
3.214000 0.331340 0.050088 0.261135 0.000000
3.216000 0.331340 0.049501 0.361911 0.000000
3.218000 0.329806 0.051480 0.437661 0.000000
3.220000 0.329806 0.054177 0.437661 0.000000
3.222000 0.328272 0.053881 0.329539 0.000000
3.224000 0.328272 0.053723 0.211835 0.000000
3.226000 0.326738 0.050459 0.244248 0.000000
3.228000 0.326738 0.049418 0.244248 0.000000
3.230000 0.326738 0.049110 0.346015 0.000000
3.232000 0.326738 0.048658 0.355047 0.000000
3.234000 0.325204 0.049002 0.256566 0.000000
3.236000 0.323670 0.047155 0.198790 0.000000
3.238000 0.323670 0.045249 0.198790 0.000000
3.240000 0.323670 0.044960 0.224636 0.000000
3.242000 0.322136 0.042866 0.429686 0.000000
3.244000 0.322136 0.045278 0.377792 0.000000
3.246000 0.320602 0.047019 0.377792 0.000000
3.248000 0.320602 0.046755 0.272912 0.000000
3.250000 0.319068 0.044317 0.215953 0.000000
3.252000 0.319068 0.043436 0.291974 0.000000
3.254000 0.319068 0.045013 0.398031 0.000000
3.256000 0.317534 0.048498 0.398031 0.000000
3.258000 0.317534 0.048232 0.384264 0.000000
3.260000 0.316000 0.050256 0.206760 0.000000
3.262000 0.316000 0.047693 0.206273 0.000000
3.264000 0.314466 0.046363 0.267669 0.000000
3.266000 0.314466 0.047052 0.267669 0.000000
3.268000 0.314466 0.046767 0.420055 0.000000
3.270000 0.312932 0.049497 0.286470 0.000000
3.272000 0.312932 0.049324 0.218092 0.000000
3.274000 0.311398 0.047121 0.218092 0.000000
3.276000 0.309864 0.046826 0.191691 0.000000
3.278000 0.309864 0.043223 0.355232 0.000000
3.280000 0.309864 0.046024 0.426104 0.000000
3.282000 0.309864 0.049820 0.304038 0.000000
3.284000 0.308330 0.051087 0.304038 0.000000
3.286000 0.306796 0.050798 0.185022 0.000000
3.288000 0.306796 0.046391 0.230920 0.000000
3.290000 0.306796 0.044893 0.343737 0.000000
3.292000 0.305262 0.045990 0.343737 0.000000
3.294000 0.305262 0.045715 0.435107 0.000000
3.296000 0.303728 0.047239 0.237894 0.000000
3.298000 0.303728 0.045099 0.179588 0.000000
3.300000 0.302194 0.043410 0.217839 0.000000
3.302000 0.302194 0.043085 0.217839 0.000000
3.304000 0.300660 0.042812 0.320068 0.000000
3.306000 0.300660 0.042599 0.356302 0.000000
3.308000 0.299126 0.045267 0.248560 0.000000
3.310000 0.299126 0.044207 0.248560 0.000000
3.312000 0.297592 0.043937 0.180005 0.000000
3.314000 0.297592 0.040872 0.285569 0.000000
3.316000 0.297592 0.041337 0.394763 0.000000
3.318000 0.296058 0.045082 0.378694 0.000000
3.320000 0.296058 0.048379 0.378694 0.000000
3.322000 0.294524 0.048117 0.257726 0.000000
3.324000 0.292990 0.045771 0.200886 0.000000
3.326000 0.292990 0.043234 0.260808 0.000000
3.328000 0.292990 0.043259 0.373489 0.000000
3.330000 0.291456 0.046840 0.373489 0.000000
3.332000 0.291456 0.046576 0.265617 0.000000
3.334000 0.289922 0.045102 0.193632 0.000000
3.336000 0.288388 0.041711 0.184511 0.000000
3.338000 0.288388 0.039594 0.184511 0.000000
3.340000 0.288388 0.039326 0.238626 0.000000
3.342000 0.286854 0.037934 0.397422 0.000000
3.344000 0.286854 0.042340 0.269993 0.000000
3.346000 0.285320 0.043089 0.195817 0.000000
3.348000 0.283786 0.040900 0.195817 0.000000
3.350000 0.283786 0.040639 0.216997 0.000000
3.352000 0.283786 0.039260 0.318352 0.000000
3.354000 0.282252 0.041687 0.401777 0.000000
3.356000 0.282252 0.046433 0.401777 0.000000
3.358000 0.280718 0.046184 0.288557 0.000000
3.360000 0.279185 0.046936 0.164375 0.000000
3.362000 0.279185 0.043201 0.200380 0.000000
3.364000 0.279185 0.041881 0.296875 0.000000
3.366000 0.277651 0.043717 0.296875 0.000000
3.368000 0.277651 0.043453 0.295761 0.000000
3.370000 0.276117 0.045955 0.211073 0.000000
3.372000 0.274583 0.043358 0.156013 0.000000
3.374000 0.274583 0.040555 0.156013 0.000000
3.376000 0.274583 0.040279 0.186783 0.000000
3.378000 0.273049 0.037583 0.383576 0.000000
3.380000 0.273049 0.042668 0.318241 0.000000
3.382000 0.271515 0.044957 0.226569 0.000000
3.384000 0.269981 0.042952 0.226569 0.000000
3.386000 0.269981 0.042685 0.153387 0.000000
3.388000 0.268447 0.037594 0.249080 0.000000
3.390000 0.268447 0.037344 0.354989 0.000000
3.392000 0.268447 0.041724 0.339666 0.000000
3.394000 0.266913 0.046343 0.339666 0.000000
3.396000 0.265379 0.046091 0.157655 0.000000
3.398000 0.265379 0.040277 0.180755 0.000000
3.400000 0.263845 0.037000 0.231242 0.000000
3.402000 0.263845 0.036050 0.231242 0.000000
3.404000 0.262311 0.035807 0.323888 0.000000
3.406000 0.262311 0.038149 0.237624 0.000000
3.408000 0.260777 0.038358 0.170387 0.000000
3.410000 0.259243 0.035518 0.168511 0.000000
3.412000 0.259243 0.033088 0.168511 0.000000
3.414000 0.259243 0.032854 0.300729 0.000000
3.416000 0.257709 0.034935 0.354468 0.000000
3.418000 0.257709 0.039940 0.249286 0.000000
3.420000 0.256175 0.040520 0.249286 0.000000
3.422000 0.254641 0.040284 0.178704 0.000000
3.424000 0.254641 0.035759 0.194587 0.000000
3.426000 0.253107 0.033479 0.280057 0.000000
3.428000 0.253107 0.035066 0.346020 0.000000
3.430000 0.251573 0.040222 0.346020 0.000000
3.432000 0.251573 0.040000 0.188447 0.000000
3.434000 0.250039 0.036405 0.158839 0.000000
3.436000 0.248505 0.033167 0.181913 0.000000
3.438000 0.248505 0.031857 0.181913 0.000000
3.440000 0.248505 0.031633 0.250652 0.000000
3.442000 0.246971 0.032196 0.268752 0.000000
3.444000 0.245437 0.035395 0.198584 0.000000
3.446000 0.243903 0.034366 0.155504 0.000000
3.448000 0.243903 0.031983 0.155504 0.000000
3.450000 0.242369 0.031759 0.232618 0.000000
3.452000 0.242369 0.031628 0.315946 0.000000
3.454000 0.242369 0.035578 0.273186 0.000000
3.456000 0.240835 0.039759 0.203591 0.000000
3.458000 0.239301 0.039482 0.203591 0.000000
3.460000 0.237767 0.039241 0.159130 0.000000
3.462000 0.237767 0.034986 0.222669 0.000000
3.464000 0.237767 0.034790 0.298134 0.000000
3.466000 0.236233 0.037791 0.298134 0.000000
3.468000 0.234699 0.037566 0.272225 0.000000
3.470000 0.234699 0.040815 0.161658 0.000000
3.472000 0.233165 0.036812 0.158341 0.000000
3.474000 0.231631 0.033889 0.203569 0.000000
3.476000 0.231631 0.033739 0.203569 0.000000
3.478000 0.231631 0.033509 0.277747 0.000000
3.480000 0.230097 0.037484 0.223524 0.000000
3.482000 0.228563 0.037913 0.164926 0.000000
3.484000 0.227029 0.034928 0.164926 0.000000
3.486000 0.227029 0.034688 0.155507 0.000000
3.488000 0.227029 0.030243 0.257444 0.000000
3.490000 0.225495 0.031251 0.273228 0.000000
3.492000 0.223961 0.035076 0.229507 0.000000
3.494000 0.223961 0.036795 0.229507 0.000000
3.496000 0.222427 0.036573 0.148007 0.000000
3.498000 0.220893 0.031275 0.175255 0.000000
3.500000 0.220893 0.028986 0.224838 0.000000
3.502000 0.219359 0.029634 0.224838 0.000000
3.504000 0.219359 0.029435 0.274755 0.000000
3.506000 0.217825 0.033130 0.177256 0.000000
3.508000 0.216291 0.032368 0.149914 0.000000
3.510000 0.216291 0.029862 0.167578 0.000000
3.512000 0.214757 0.028413 0.167578 0.000000
3.514000 0.214757 0.028207 0.256608 0.000000
3.516000 0.213223 0.031255 0.237584 0.000000
3.518000 0.211689 0.033889 0.179081 0.000000
3.520000 0.211689 0.033743 0.148643 0.000000
3.522000 0.210155 0.030824 0.148643 0.000000
3.524000 0.210155 0.030604 0.164302 0.000000
3.526000 0.208621 0.028834 0.248499 0.000000
3.528000 0.208621 0.031450 0.244650 0.000000
3.530000 0.207087 0.033987 0.244650 0.000000
3.532000 0.205553 0.033783 0.148425 0.000000
3.534000 0.205553 0.028973 0.143708 0.000000
3.536000 0.204019 0.025261 0.153330 0.000000
3.538000 0.202485 0.024559 0.229459 0.000000
3.540000 0.202485 0.026869 0.229459 0.000000
3.542000 0.200951 0.026692 0.189870 0.000000
3.544000 0.200951 0.029052 0.153569 0.000000
3.546000 0.199418 0.027331 0.129454 0.000000
3.548000 0.197884 0.024464 0.129454 0.000000
3.550000 0.197884 0.024275 0.135784 0.000000
3.552000 0.196350 0.022943 0.231546 0.000000
3.554000 0.194816 0.027330 0.195888 0.000000
3.556000 0.194816 0.030564 0.158299 0.000000
3.558000 0.193282 0.029802 0.158299 0.000000
3.560000 0.193282 0.029602 0.125511 0.000000
3.562000 0.191748 0.026653 0.183123 0.000000
3.564000 0.190214 0.027081 0.216992 0.000000
3.566000 0.190214 0.029920 0.216992 0.000000
3.568000 0.188680 0.029733 0.209433 0.000000
3.570000 0.187146 0.033064 0.120048 0.000000
3.572000 0.187146 0.028433 0.114660 0.000000
3.574000 0.185612 0.025481 0.158378 0.000000
3.576000 0.184078 0.025089 0.158378 0.000000
3.578000 0.184078 0.024903 0.214861 0.000000
3.580000 0.182544 0.029417 0.185355 0.000000
3.582000 0.182544 0.028878 0.116914 0.000000
3.584000 0.181010 0.024636 0.105204 0.000000
3.586000 0.179476 0.021696 0.105204 0.000000
3.588000 0.179476 0.021513 0.206383 0.000000
3.590000 0.177942 0.022696 0.230654 0.000000
3.592000 0.176408 0.027838 0.192862 0.000000
3.594000 0.176408 0.029286 0.192862 0.000000
3.596000 0.174874 0.029103 0.093566 0.000000
3.598000 0.173340 0.022806 0.113333 0.000000
3.600000 0.173340 0.021084 0.183587 0.000000
3.602000 0.171806 0.021851 0.233987 0.000000
3.604000 0.171806 0.026655 0.233987 0.000000
3.606000 0.170272 0.026492 0.117370 0.000000
3.608000 0.168738 0.022298 0.080192 0.000000
3.610000 0.168738 0.017618 0.084743 0.000000
3.612000 0.167204 0.016599 0.084743 0.000000
3.614000 0.165670 0.016449 0.231406 0.000000
3.616000 0.165670 0.022737 0.218283 0.000000
3.618000 0.164136 0.028650 0.126512 0.000000
3.620000 0.162602 0.025822 0.077003 0.000000
3.622000 0.162602 0.020226 0.077003 0.000000
3.624000 0.161068 0.020047 0.157958 0.000000
3.626000 0.159534 0.019460 0.229894 0.000000
3.628000 0.159534 0.023721 0.227949 0.000000
3.630000 0.158000 0.030141 0.227949 0.000000
3.632000 0.158000 0.029973 0.124955 0.000000
3.634000 0.156466 0.027462 0.050537 0.000000
3.636000 0.154932 0.022384 0.138229 0.000000
3.638000 0.153398 0.021649 0.222090 0.000000
3.640000 0.153398 0.024942 0.222090 0.000000
3.642000 0.151864 0.024777 0.135216 0.000000
3.644000 0.151864 0.026063 0.057878 0.000000
3.646000 0.150330 0.019103 0.040836 0.000000
3.648000 0.148796 0.015542 0.113564 0.000000
3.650000 0.147262 0.015848 0.113564 0.000000
3.652000 0.147262 0.015707 0.232754 0.000000
3.654000 0.145728 0.027258 0.155244 0.000000
3.656000 0.145728 0.030028 0.049199 0.000000
3.658000 0.144194 0.021778 0.049199 0.000000
3.660000 0.142660 0.021588 0.102034 0.000000
3.662000 0.141126 0.019608 0.200958 0.000000
3.664000 0.141126 0.020805 0.213070 0.000000
3.666000 0.139592 0.024914 0.158342 0.000000
3.668000 0.139592 0.028272 0.158342 0.000000
3.670000 0.138058 0.028096 0.019715 0.000000
3.672000 0.136524 0.019836 0.088861 0.000000
3.674000 0.134990 0.017619 0.200793 0.000000
3.676000 0.134990 0.020205 0.200793 0.000000
3.678000 0.133456 0.020057 0.167791 0.000000
3.680000 0.133456 0.025032 0.039150 0.000000
3.682000 0.131922 0.017964 0.007311 0.000000
3.684000 0.130388 0.012160 0.069202 0.000000
3.686000 0.128854 0.010886 0.069202 0.000000
3.688000 0.128854 0.010757 0.224104 0.000000
3.690000 0.127320 0.016003 0.174000 0.000000
3.692000 0.127320 0.023321 0.035022 0.000000
3.694000 0.125786 0.016512 0.035022 0.000000
3.696000 0.124252 0.016362 0.051680 0.000000
3.698000 0.122718 0.011284 0.182078 0.000000
3.700000 0.122718 0.011332 0.229485 0.000000
3.702000 0.121184 0.016662 0.158579 0.000000
3.704000 0.119651 0.021457 0.158579 0.000000
3.706000 0.118117 0.021328 -0.014153 0.000000
3.708000 0.116583 0.012351 0.037944 0.000000
3.710000 0.116583 0.009150 0.170693 0.000000
3.712000 0.115049 0.009543 0.234101 0.000000
3.714000 0.115049 0.015979 0.234101 0.000000
3.716000 0.113515 0.015878 0.014584 0.000000
3.718000 0.111981 0.010360 -0.034104 0.000000
3.720000 0.110447 0.004638 0.023920 0.000000
3.722000 0.108913 0.004095 0.023920 0.000000
3.724000 0.108913 0.004004 0.228366 0.000000
3.726000 0.108913 0.010977 0.162178 0.000000
3.728000 0.107379 0.021708 0.010403 0.000000
3.730000 0.105845 0.016363 -0.027993 0.000000
3.732000 0.104311 0.009822 -0.027993 0.000000
3.734000 0.102777 0.009687 0.148152 0.000000
3.736000 0.102777 0.008563 0.223732 0.000000
3.738000 0.102777 0.017263 0.163753 0.000000
3.740000 0.101243 0.027095 0.163753 0.000000
3.742000 0.099709 0.026960 -0.039178 0.000000
3.744000 0.098175 0.015268 0.019532 0.000000
3.746000 0.096641 0.009947 0.131643 0.000000
3.748000 0.096641 0.007969 0.211962 0.000000
3.750000 0.095107 0.013845 0.211962 0.000000
3.752000 0.095107 0.013742 0.018451 0.000000
3.754000 0.093573 0.014052 -0.049778 0.000000
3.756000 0.090505 0.006060 0.014591 0.000000
3.758000 0.090505 0.003043 0.014591 0.000000
3.760000 0.088971 0.002945 0.199588 0.000000
3.762000 0.088971 0.009355 0.157185 0.000000
3.764000 0.087437 0.019101 0.027096 0.000000
3.766000 0.085903 0.020659 -0.050386 0.000000
3.768000 0.084369 0.011527 -0.050386 0.000000
3.770000 0.082835 0.011382 0.109137 0.000000
3.772000 0.082835 0.007504 0.206755 0.000000
3.774000 0.082835 0.012514 0.143815 0.000000
3.776000 0.081301 0.018749 -0.054061 0.000000
3.778000 0.079767 0.010104 -0.054061 0.000000
3.780000 0.078233 0.009976 0.015525 0.000000
3.782000 0.076699 0.004862 0.097149 0.000000
3.784000 0.076699 0.002600 0.208959 0.000000
3.786000 0.075165 0.008682 0.208959 0.000000
3.788000 0.075165 0.008613 0.029251 0.000000
3.790000 0.073631 0.014233 -0.052042 0.000000
3.792000 0.072097 0.005832 0.009552 0.000000
3.794000 0.070563 0.001779 0.086423 0.000000
3.796000 0.069029 -0.000167 0.086423 0.000000
3.798000 0.069029 -0.000234 0.125835 0.000000
3.800000 0.069029 0.011377 0.018148 0.000000
3.802000 0.067495 0.016030 -0.056047 0.000000
3.804000 0.064427 0.006391 -0.056047 0.000000
3.806000 0.062893 0.006278 0.075384 0.000000
3.808000 0.062893 0.001272 0.186166 0.000000
3.810000 0.062893 0.004150 0.116467 0.000000
3.812000 0.061359 0.012923 0.009642 0.000000
3.814000 0.059825 0.016338 0.009642 0.000000
3.816000 0.058291 0.016225 -0.006776 0.000000
3.818000 0.056757 0.007742 0.074644 0.000000
3.820000 0.056757 0.003420 0.164184 0.000000
3.822000 0.055223 0.004289 0.003614 0.000000
3.824000 0.055223 0.011124 0.003614 0.000000
3.826000 0.053689 0.011032 -0.055935 0.000000
3.828000 0.050621 0.002929 -0.015777 0.000000
3.830000 0.050621 -0.001656 0.066744 0.000000
3.832000 0.049087 -0.003290 0.066744 0.000000
3.834000 0.049087 -0.003342 0.089799 0.000000
3.836000 0.047553 0.009367 0.005995 0.000000
3.838000 0.046019 0.015112 -0.050639 0.000000
3.840000 0.044485 0.006329 0.061743 0.000000
3.842000 0.042951 0.001664 0.061743 0.000000
3.844000 0.042951 0.001577 0.119819 0.000000
3.846000 0.041417 -0.000459 0.070005 0.000000
3.848000 0.041417 0.007008 -0.016824 0.000000
3.850000 0.039884 0.011311 -0.016824 0.000000
3.852000 0.038350 0.011223 -0.015650 0.000000
3.854000 0.036816 0.002487 0.046740 0.000000
3.856000 0.035282 -0.002048 0.089730 0.000000
3.858000 0.035282 -0.003570 -0.015431 0.000000
3.860000 0.033748 0.002391 -0.015431 0.000000
3.862000 0.032214 0.002338 -0.027199 0.000000
3.864000 0.030680 -0.000530 -0.018132 0.000000
3.866000 0.029146 -0.005016 0.040881 0.000000
3.868000 0.029146 -0.007266 0.040881 0.000000
3.870000 0.027612 -0.007295 0.054613 0.000000
3.872000 0.027612 0.001337 -0.019156 0.000000
3.874000 0.026078 0.007329 -0.021803 0.000000
3.876000 0.024544 0.003128 -0.013559 0.000000
3.878000 0.023010 -0.002838 -0.013559 0.000000
3.880000 0.021476 -0.002905 0.049243 0.000000
3.882000 0.021476 -0.006563 0.035879 0.000000
3.884000 0.019942 -0.001820 -0.012666 0.000000
3.886000 0.018408 0.003452 -0.012666 0.000000
3.888000 0.016874 0.003406 -0.008160 0.000000
3.890000 0.015340 -0.004720 0.010299 0.000000
3.892000 0.015340 -0.010050 0.015578 0.000000
3.894000 0.013806 -0.012100 0.013644 0.000000
3.896000 0.013806 -0.008259 0.013644 0.000000
3.898000 0.012272 -0.008259 0.002535 0.000000
3.900000 0.010738 -0.006682 -0.004461 0.000000
3.902000 0.009204 -0.010293 -0.006766 0.000000
3.904000 0.007670 -0.013144 0.006022 0.000000
3.906000 0.007670 -0.009523 0.006022 0.000000
3.908000 0.006136 -0.009514 -0.005094 0.000000
3.910000 0.004602 -0.003191 0.003118 0.000000
3.912000 0.003068 -0.001631 -0.001442 0.000000
3.914000 0.003068 -0.005818 -0.001442 0.000000
3.916000 0.001534 -0.005848 -0.038520 0.000000
3.918000 -0.000000 -0.010117 -0.000284 0.000000
3.920000 -0.001534 -0.007595 0.009355 0.000000
3.922000 -0.001534 -0.002432 0.008503 0.000000
3.924000 -0.003068 -0.004399 0.008503 0.000000
3.926000 -0.004602 -0.004427 -0.031107 0.000000
3.928000 -0.006136 -0.009333 -0.062441 0.000000
3.930000 -0.006136 -0.012482 -0.007402 0.000000
3.932000 -0.007670 -0.010175 -0.007402 0.000000
3.934000 -0.009204 -0.010170 0.014974 0.000000
3.936000 -0.010738 -0.003033 -0.005659 0.000000
3.938000 -0.012272 -0.003315 -0.048279 0.000000
3.940000 -0.012272 -0.008191 -0.028590 0.000000
3.942000 -0.013806 -0.008022 -0.028590 0.000000
3.944000 -0.015340 -0.008039 0.037697 0.000000
3.946000 -0.016874 -0.000273 0.033528 0.000000
3.948000 -0.016874 0.004128 -0.019492 0.000000
3.950000 -0.018408 0.002850 -0.019492 0.000000
3.952000 -0.019942 0.002785 -0.089559 0.000000
3.954000 -0.021476 -0.005116 -0.027347 0.000000
3.956000 -0.021476 -0.006511 0.035210 0.000000
3.958000 -0.023010 -0.001545 0.053851 0.000000
3.960000 -0.024544 0.004107 0.053851 0.000000
3.962000 -0.026078 0.004060 -0.090098 0.000000
3.964000 -0.027612 -0.005645 -0.111394 0.000000
3.966000 -0.027612 -0.012112 -0.021025 0.000000
3.968000 -0.029146 -0.011984 0.059290 0.000000
3.970000 -0.030680 -0.002264 0.059290 0.000000
3.972000 -0.030680 -0.002274 -0.042534 0.000000
3.974000 -0.032214 -0.002576 -0.124257 0.000000
3.976000 -0.033748 -0.012281 -0.125331 0.000000
3.978000 -0.035282 -0.017805 -0.125331 0.000000
3.980000 -0.036816 -0.017809 0.051591 0.000000
3.982000 -0.036816 -0.010951 0.046794 0.000000
3.984000 -0.038350 0.001563 -0.060800 0.000000
3.986000 -0.039884 -0.000616 -0.121980 0.000000
3.988000 -0.041417 -0.009245 -0.121980 0.000000
3.990000 -0.042951 -0.009282 -0.025722 0.000000
3.992000 -0.042951 -0.011302 0.057205 0.000000
3.994000 -0.044485 -0.007659 0.037938 0.000000
3.996000 -0.044485 0.006003 0.037938 0.000000
3.998000 -0.046019 0.005979 -0.159433 0.000000
4.000000 -0.047553 -0.008888 -0.129857 0.000000
4.002000 -0.049087 -0.016531 -0.034696 0.000000
4.004000 -0.050621 -0.017953 0.020658 0.000000
4.006000 -0.050621 -0.001253 0.020658 0.000000
4.008000 -0.052155 -0.001251 -0.102030 0.000000
4.010000 -0.053689 -0.002507 -0.179383 0.000000
4.012000 -0.055223 -0.015563 -0.127452 0.000000
4.014000 -0.056757 -0.021421 -0.127452 0.000000
4.016000 -0.056757 -0.021415 0.061129 0.000000
4.018000 -0.058291 -0.013964 0.004746 0.000000
4.020000 -0.058291 0.001784 -0.126871 0.000000
4.022000 -0.059825 -0.001420 -0.114736 0.000000
4.024000 -0.062893 -0.011057 -0.114736 0.000000
4.026000 -0.064427 -0.011089 -0.016646 0.000000
4.028000 -0.064427 -0.015104 0.057768 0.000000
4.030000 -0.064427 -0.010927 -0.013343 0.000000
4.032000 -0.065961 0.002360 -0.193741 0.000000
4.034000 -0.067495 -0.012174 -0.193741 0.000000
4.036000 -0.069029 -0.012205 -0.101323 0.000000
4.038000 -0.070563 -0.018836 -0.003421 0.000000
4.040000 -0.072097 -0.020743 -0.047798 0.000000
4.042000 -0.072097 -0.007619 -0.047798 0.000000
4.044000 -0.072097 -0.007591 -0.172517 0.000000
4.046000 -0.075165 -0.009432 -0.188343 0.000000
4.048000 -0.076699 -0.022232 -0.099316 0.000000
4.050000 -0.078233 -0.026743 0.033415 0.000000
4.052000 -0.078233 -0.021747 0.033415 0.000000
4.054000 -0.078233 -0.021679 -0.093382 0.000000
4.056000 -0.079767 -0.009485 -0.190899 0.000000
4.058000 -0.081301 -0.013965 -0.190899 0.000000
4.060000 -0.084369 -0.013945 -0.179691 0.000000
4.062000 -0.084369 -0.025275 0.005639 0.000000
4.064000 -0.084369 -0.026749 0.021382 0.000000
4.066000 -0.085903 -0.020770 -0.124868 0.000000
4.068000 -0.087437 -0.011378 -0.159073 0.000000
4.070000 -0.088971 -0.020673 -0.159073 0.000000
4.072000 -0.090505 -0.020638 -0.075200 0.000000
4.074000 -0.092039 -0.025336 -0.007230 0.000000
4.076000 -0.092039 -0.026838 -0.003783 0.000000
4.078000 -0.092039 -0.021991 -0.003783 0.000000
4.080000 -0.093573 -0.021904 -0.209467 0.000000
4.082000 -0.095107 -0.022413 -0.132504 0.000000
4.084000 -0.098175 -0.026886 -0.132504 0.000000
4.086000 -0.098175 -0.026810 -0.067427 0.000000
4.088000 -0.098175 -0.028837 -0.041226 0.000000
4.090000 -0.099709 -0.025464 -0.181897 0.000000
4.092000 -0.101243 -0.017290 -0.193805 0.000000
4.094000 -0.102777 -0.021942 -0.193805 0.000000
4.096000 -0.104311 -0.021892 -0.129437 0.000000
4.098000 -0.104311 -0.026725 -0.052052 0.000000
4.100000 -0.105845 -0.028499 -0.071412 0.000000
4.102000 -0.105845 -0.025866 -0.071412 0.000000
4.104000 -0.107379 -0.025771 -0.197106 0.000000
4.106000 -0.108913 -0.016220 -0.119061 0.000000
4.108000 -0.110447 -0.021457 -0.065730 0.000000
4.110000 -0.111981 -0.025426 -0.073491 0.000000
4.112000 -0.111981 -0.027934 -0.073491 0.000000
4.114000 -0.113515 -0.027851 -0.110282 0.000000
4.116000 -0.115049 -0.026052 -0.123366 0.000000
4.118000 -0.116583 -0.022824 -0.104941 0.000000
4.120000 -0.116583 -0.025065 -0.086365 0.000000
4.122000 -0.118117 -0.027425 -0.086365 0.000000
4.124000 -0.119651 -0.027341 -0.143806 0.000000
4.126000 -0.119651 -0.025353 -0.170580 0.000000
4.128000 -0.121184 -0.021974 -0.103440 0.000000
4.130000 -0.122718 -0.019913 -0.098199 0.000000
4.132000 -0.124252 -0.023756 -0.122369 0.000000
4.134000 -0.124252 -0.027572 -0.122369 0.000000
4.136000 -0.125786 -0.027497 -0.164757 0.000000
4.138000 -0.127320 -0.027523 -0.154577 0.000000
4.140000 -0.127320 -0.024394 -0.154577 0.000000
4.142000 -0.128854 -0.024299 -0.093585 0.000000
4.144000 -0.130388 -0.019240 -0.146260 0.000000
4.146000 -0.131922 -0.026781 -0.156304 0.000000
4.148000 -0.131922 -0.030687 -0.155990 0.000000
4.150000 -0.133456 -0.030676 -0.076425 0.000000
4.152000 -0.134990 -0.025530 -0.076425 0.000000
4.154000 -0.134990 -0.025429 -0.113006 0.000000
4.156000 -0.136524 -0.026893 -0.172021 0.000000
4.158000 -0.138058 -0.033161 -0.186623 0.000000
4.160000 -0.139592 -0.036381 -0.098745 0.000000
4.162000 -0.139592 -0.027707 -0.098745 0.000000
4.164000 -0.141126 -0.027585 -0.073899 0.000000
4.166000 -0.141126 -0.020500 -0.137587 0.000000
4.168000 -0.142660 -0.023480 -0.207182 0.000000
4.170000 -0.144194 -0.030215 -0.207182 0.000000
4.172000 -0.145728 -0.030131 -0.110842 0.000000
4.174000 -0.145728 -0.027156 -0.074244 0.000000
4.176000 -0.147262 -0.019318 -0.077296 0.000000
4.178000 -0.147262 -0.014324 -0.236535 0.000000
4.180000 -0.148796 -0.026983 -0.236535 0.000000
4.182000 -0.150330 -0.026930 -0.207237 0.000000
4.184000 -0.151864 -0.032634 -0.092872 0.000000
4.186000 -0.153398 -0.029458 -0.103253 0.000000
4.188000 -0.153398 -0.019093 -0.103253 0.000000
4.190000 -0.154932 -0.019000 -0.206345 0.000000
4.192000 -0.156466 -0.026343 -0.254486 0.000000
4.194000 -0.158000 -0.037206 -0.193397 0.000000
4.196000 -0.158000 -0.039841 -0.044173 0.000000
4.198000 -0.159534 -0.029096 -0.044173 0.000000
4.200000 -0.159534 -0.028959 -0.142739 0.000000
4.202000 -0.161068 -0.014478 -0.242785 0.000000
4.204000 -0.162602 -0.025093 -0.169965 0.000000
4.206000 -0.164136 -0.029800 -0.169965 0.000000
4.208000 -0.164136 -0.029716 -0.065931 0.000000
4.210000 -0.165670 -0.026677 -0.039296 0.000000
4.212000 -0.165670 -0.015640 -0.039296 0.000000
4.214000 -0.167204 -0.015544 -0.186106 0.000000
4.216000 -0.168738 -0.007608 -0.252561 0.000000
4.218000 -0.170272 -0.023071 -0.144801 0.000000
4.220000 -0.171806 -0.027699 -0.048778 0.000000
4.222000 -0.171806 -0.027219 -0.048778 0.000000
4.224000 -0.171806 -0.027131 -0.067944 0.000000
4.226000 -0.173340 -0.012152 -0.301080 0.000000
4.228000 -0.174874 -0.027456 -0.239201 0.000000
4.230000 -0.176408 -0.035951 -0.129277 0.000000
4.232000 -0.177942 -0.036853 -0.097591 0.000000
4.234000 -0.177942 -0.020971 -0.097591 0.000000
4.236000 -0.177942 -0.020858 -0.245028 0.000000
4.238000 -0.179476 -0.022113 -0.317685 0.000000
4.240000 -0.181010 -0.036543 -0.205959 0.000000
4.242000 -0.182544 -0.041860 -0.046810 0.000000
4.244000 -0.182544 -0.038162 -0.046810 0.000000
4.246000 -0.182544 -0.038004 -0.152243 0.000000
4.248000 -0.184078 -0.023554 -0.289445 0.000000
4.250000 -0.185612 -0.027464 -0.187255 0.000000
4.252000 -0.187146 -0.035211 -0.187255 0.000000
4.254000 -0.188680 -0.035097 -0.078434 0.000000
4.256000 -0.188680 -0.036182 -0.071883 0.000000
4.258000 -0.188680 -0.032969 -0.196915 0.000000
4.260000 -0.190214 -0.024317 -0.266650 0.000000
4.262000 -0.191748 -0.035836 -0.266650 0.000000
4.264000 -0.193282 -0.035724 -0.171509 0.000000
4.266000 -0.194816 -0.040251 -0.074225 0.000000
4.268000 -0.194816 -0.040272 -0.255129 0.000000
4.270000 -0.194816 -0.035110 -0.255129 0.000000
4.272000 -0.194816 -0.034953 -0.336620 0.000000
4.274000 -0.197884 -0.042133 -0.221313 0.000000
4.276000 -0.199418 -0.046744 -0.148806 0.000000
4.278000 -0.199418 -0.048147 -0.131381 0.000000
4.280000 -0.199418 -0.043852 -0.131381 0.000000
4.282000 -0.199418 -0.043647 -0.304488 0.000000
4.284000 -0.200951 -0.037092 -0.310853 0.000000
4.286000 -0.202485 -0.043016 -0.132312 0.000000
4.288000 -0.204019 -0.045551 -0.137977 0.000000
4.290000 -0.205553 -0.046300 -0.137977 0.000000
4.292000 -0.205553 -0.046098 -0.175565 0.000000
4.294000 -0.205553 -0.041722 -0.315480 0.000000
4.296000 -0.207087 -0.037239 -0.184469 0.000000
4.298000 -0.208621 -0.039871 -0.184469 0.000000
4.300000 -0.210155 -0.039699 -0.139529 0.000000
4.302000 -0.210155 -0.040509 -0.169918 0.000000
4.304000 -0.210155 -0.041677 -0.227078 0.000000
4.306000 -0.211689 -0.041336 -0.211719 0.000000
4.308000 -0.213223 -0.038545 -0.211719 0.000000
4.310000 -0.214757 -0.038371 -0.177055 0.000000
4.312000 -0.214757 -0.038525 -0.170034 0.000000
4.314000 -0.216291 -0.040496 -0.269186 0.000000
4.316000 -0.216291 -0.040672 -0.269186 0.000000
4.318000 -0.217825 -0.040501 -0.264215 0.000000
4.320000 -0.217825 -0.036036 -0.189387 0.000000
4.322000 -0.219359 -0.032291 -0.173957 0.000000
4.324000 -0.220893 -0.035073 -0.232554 0.000000
4.326000 -0.220893 -0.040508 -0.232554 0.000000
4.328000 -0.222427 -0.040356 -0.269471 0.000000
4.330000 -0.222427 -0.040818 -0.218921 0.000000
4.332000 -0.223961 -0.035695 -0.218921 0.000000
4.334000 -0.223961 -0.035523 -0.179532 0.000000
4.336000 -0.225495 -0.037366 -0.249156 0.000000
4.338000 -0.227029 -0.045316 -0.265931 0.000000
4.340000 -0.227029 -0.049915 -0.233360 0.000000
4.342000 -0.228563 -0.048945 -0.150513 0.000000
4.344000 -0.228563 -0.042949 -0.150513 0.000000
4.346000 -0.228563 -0.042739 -0.213131 0.000000
4.348000 -0.230097 -0.043455 -0.280153 0.000000
4.350000 -0.231631 -0.051364 -0.201720 0.000000
4.352000 -0.233165 -0.047932 -0.155909 0.000000
4.354000 -0.233165 -0.039256 -0.155909 0.000000
4.356000 -0.233165 -0.039046 -0.165112 0.000000
4.358000 -0.234699 -0.034945 -0.165112 0.000000
4.360000 -0.236233 -0.034752 -0.269632 0.000000
4.362000 -0.236233 -0.043651 -0.271571 0.000000
4.364000 -0.237767 -0.047722 -0.167277 0.000000
4.366000 -0.237767 -0.042014 -0.131818 0.000000
4.368000 -0.237767 -0.034056 -0.287826 0.000000
4.370000 -0.239301 -0.044030 -0.325977 0.000000
4.372000 -0.240835 -0.053784 -0.325977 0.000000
4.374000 -0.242369 -0.053592 -0.233965 0.000000
4.376000 -0.242369 -0.051706 -0.146452 0.000000
4.378000 -0.242369 -0.043523 -0.146452 0.000000
4.380000 -0.242369 -0.043278 -0.244949 0.000000
4.382000 -0.243903 -0.031777 -0.345950 0.000000
4.384000 -0.245437 -0.045300 -0.321438 0.000000
4.386000 -0.246971 -0.053036 -0.119659 0.000000
4.388000 -0.246971 -0.045086 -0.139457 0.000000
4.390000 -0.246971 -0.031138 -0.139457 0.000000
4.392000 -0.248505 -0.030944 -0.298364 0.000000
4.394000 -0.248505 -0.031500 -0.378698 0.000000
4.396000 -0.250039 -0.046205 -0.174926 0.000000
4.398000 -0.251573 -0.044024 -0.174926 0.000000
4.400000 -0.251573 -0.043840 -0.109568 0.000000
4.402000 -0.251573 -0.035183 -0.181539 0.000000
4.404000 -0.253107 -0.021496 -0.335217 0.000000
4.406000 -0.253107 -0.029209 -0.259245 0.000000
4.408000 -0.256175 -0.036706 -0.259245 0.000000
4.410000 -0.256175 -0.036580 -0.151488 0.000000
4.412000 -0.256175 -0.036036 -0.104183 0.000000
4.414000 -0.256175 -0.030255 -0.104183 0.000000
4.416000 -0.257709 -0.030090 -0.391972 0.000000
4.418000 -0.257709 -0.037711 -0.366217 0.000000
4.420000 -0.260777 -0.051539 -0.234019 0.000000
4.422000 -0.260777 -0.052757 -0.121374 0.000000
4.424000 -0.260777 -0.048984 -0.292796 0.000000
4.426000 -0.260777 -0.043682 -0.292796 0.000000
4.428000 -0.260777 -0.043465 -0.403000 0.000000
4.430000 -0.263845 -0.050939 -0.321885 0.000000
4.432000 -0.265379 -0.057990 -0.321885 0.000000
4.434000 -0.265379 -0.057754 -0.111871 0.000000
4.436000 -0.265379 -0.049583 -0.181982 0.000000
4.438000 -0.265379 -0.040053 -0.352362 0.000000
4.440000 -0.265379 -0.039065 -0.399893 0.000000
4.442000 -0.266913 -0.051614 -0.399893 0.000000
4.444000 -0.268447 -0.051422 -0.179310 0.000000
4.446000 -0.268447 -0.050729 -0.143434 0.000000
4.448000 -0.268447 -0.047998 -0.242073 0.000000
4.450000 -0.268447 -0.044465 -0.366403 0.000000
4.452000 -0.269981 -0.051495 -0.241977 0.000000
4.454000 -0.271515 -0.052778 -0.241977 0.000000
4.456000 -0.273049 -0.052541 -0.166728 0.000000
4.458000 -0.273049 -0.050196 -0.183554 0.000000
4.460000 -0.273049 -0.048986 -0.388762 0.000000
4.462000 -0.273049 -0.049816 -0.388762 0.000000
4.464000 -0.274583 -0.049583 -0.306611 0.000000
4.466000 -0.276117 -0.051361 -0.234639 0.000000
4.468000 -0.276117 -0.052493 -0.180784 0.000000
4.470000 -0.276117 -0.051665 -0.350514 0.000000
4.472000 -0.276117 -0.050943 -0.350514 0.000000
4.474000 -0.277651 -0.050701 -0.364204 0.000000
4.476000 -0.279185 -0.048475 -0.262535 0.000000
4.478000 -0.279185 -0.047490 -0.228471 0.000000
4.480000 -0.280718 -0.051592 -0.260855 0.000000
4.482000 -0.280718 -0.054672 -0.260855 0.000000
4.484000 -0.280718 -0.054422 -0.364175 0.000000
4.486000 -0.282252 -0.052494 -0.329231 0.000000
4.488000 -0.282252 -0.050297 -0.211177 0.000000
4.490000 -0.283786 -0.051972 -0.211177 0.000000
4.492000 -0.283786 -0.051721 -0.268476 0.000000
4.494000 -0.285320 -0.055093 -0.314104 0.000000
4.496000 -0.285320 -0.057592 -0.260858 0.000000
4.498000 -0.285320 -0.049311 -0.215952 0.000000
4.500000 -0.286854 -0.046669 -0.215952 0.000000
4.502000 -0.286854 -0.046423 -0.242474 0.000000
4.504000 -0.288388 -0.048401 -0.294771 0.000000
4.506000 -0.288388 -0.054205 -0.294771 0.000000
4.508000 -0.288388 -0.053961 -0.294324 0.000000
4.510000 -0.289922 -0.048933 -0.226925 0.000000
4.512000 -0.289922 -0.039908 -0.209280 0.000000
4.514000 -0.289922 -0.039735 -0.327225 0.000000
4.516000 -0.291456 -0.049793 -0.327225 0.000000
4.518000 -0.291456 -0.049589 -0.326362 0.000000
4.520000 -0.292990 -0.053537 -0.238299 0.000000
4.522000 -0.292990 -0.048022 -0.193526 0.000000
4.524000 -0.292990 -0.040172 -0.326967 0.000000
4.526000 -0.294524 -0.051655 -0.326967 0.000000
4.528000 -0.294524 -0.051438 -0.354746 0.000000
4.530000 -0.296058 -0.059909 -0.289097 0.000000
4.532000 -0.296058 -0.059455 -0.289097 0.000000
4.534000 -0.296058 -0.059171 -0.198339 0.000000
4.536000 -0.297592 -0.043579 -0.282177 0.000000
4.538000 -0.297592 -0.043181 -0.369572 0.000000
4.540000 -0.299126 -0.055333 -0.365424 0.000000
4.542000 -0.300660 -0.062773 -0.182780 0.000000
4.544000 -0.300660 -0.052192 -0.202626 0.000000
4.546000 -0.300660 -0.042523 -0.202626 0.000000
4.548000 -0.300660 -0.042270 -0.347380 0.000000
4.550000 -0.300660 -0.048418 -0.337225 0.000000
4.552000 -0.302194 -0.055148 -0.222471 0.000000
4.554000 -0.303728 -0.051648 -0.222471 0.000000
4.556000 -0.303728 -0.051390 -0.163696 0.000000
4.558000 -0.303728 -0.039742 -0.243151 0.000000
4.560000 -0.303728 -0.029730 -0.406024 0.000000
4.562000 -0.305262 -0.047830 -0.298075 0.000000
4.564000 -0.306796 -0.052298 -0.298075 0.000000
4.566000 -0.306796 -0.052084 -0.190198 0.000000
4.568000 -0.306796 -0.046830 -0.156369 0.000000
4.570000 -0.306796 -0.036501 -0.425419 0.000000
4.572000 -0.306796 -0.049018 -0.425419 0.000000
4.574000 -0.308330 -0.048817 -0.405540 0.000000
4.576000 -0.309864 -0.062475 -0.276412 0.000000
4.578000 -0.309864 -0.061134 -0.184104 0.000000
4.580000 -0.309864 -0.046419 -0.343252 0.000000
4.582000 -0.309864 -0.043012 -0.343252 0.000000
4.584000 -0.311398 -0.042777 -0.459021 0.000000
4.586000 -0.312932 -0.056385 -0.375794 0.000000
4.588000 -0.312932 -0.065311 -0.140041 0.000000
4.590000 -0.314466 -0.056902 -0.140041 0.000000
4.592000 -0.312932 -0.056603 -0.211785 0.000000
4.594000 -0.312932 -0.040390 -0.402241 0.000000
4.596000 -0.314466 -0.042454 -0.339273 0.000000
4.598000 -0.316000 -0.052581 -0.209876 0.000000
4.600000 -0.316000 -0.052773 -0.209876 0.000000
4.602000 -0.316000 -0.052523 -0.158229 0.000000
4.604000 -0.316000 -0.046934 -0.281562 0.000000
4.606000 -0.316000 -0.041081 -0.425100 0.000000
4.608000 -0.317534 -0.055128 -0.285917 0.000000
4.610000 -0.319068 -0.058262 -0.285917 0.000000
4.612000 -0.319068 -0.058004 -0.184218 0.000000
4.614000 -0.319068 -0.053743 -0.334234 0.000000
4.616000 -0.319068 -0.048867 -0.334234 0.000000
4.618000 -0.319068 -0.048598 -0.452615 0.000000
4.620000 -0.320602 -0.055792 -0.373402 0.000000
4.622000 -0.322136 -0.063951 -0.265970 0.000000
4.624000 -0.322136 -0.064728 -0.265970 0.000000
4.626000 -0.322136 -0.064423 -0.236206 0.000000
4.628000 -0.322136 -0.058169 -0.393219 0.000000
4.630000 -0.322136 -0.054363 -0.448425 0.000000
4.632000 -0.323670 -0.059790 -0.246646 0.000000
4.634000 -0.325204 -0.061791 -0.231255 0.000000
4.636000 -0.325204 -0.062108 -0.231255 0.000000
4.638000 -0.325204 -0.061797 -0.279439 0.000000
4.640000 -0.325204 -0.059227 -0.439286 0.000000
4.642000 -0.325204 -0.058165 -0.439286 0.000000
4.644000 -0.326738 -0.057866 -0.298009 0.000000
4.646000 -0.328272 -0.057915 -0.233079 0.000000
4.648000 -0.328272 -0.058368 -0.265906 0.000000
4.650000 -0.328272 -0.059773 -0.324079 0.000000
4.652000 -0.328272 -0.060942 -0.324079 0.000000
4.654000 -0.328272 -0.060639 -0.348456 0.000000
4.656000 -0.329806 -0.055312 -0.272134 0.000000
4.658000 -0.329806 -0.054620 -0.247347 0.000000
4.660000 -0.329806 -0.056375 -0.247347 0.000000
4.662000 -0.331340 -0.056090 -0.373864 0.000000
4.664000 -0.331340 -0.058357 -0.389325 0.000000
4.666000 -0.331340 -0.056019 -0.293680 0.000000
4.668000 -0.332874 -0.050067 -0.265295 0.000000
4.670000 -0.332874 -0.052047 -0.340947 0.000000
4.672000 -0.332874 -0.059112 -0.340947 0.000000
4.674000 -0.332874 -0.058843 -0.378332 0.000000
4.676000 -0.334408 -0.061003 -0.336599 0.000000
4.678000 -0.334408 -0.055672 -0.258927 0.000000
4.680000 -0.334408 -0.055590 -0.258927 0.000000
4.682000 -0.335942 -0.055301 -0.338265 0.000000
4.684000 -0.335942 -0.061833 -0.383465 0.000000
4.686000 -0.335942 -0.067403 -0.357110 0.000000
4.688000 -0.337476 -0.065992 -0.244561 0.000000
4.690000 -0.337476 -0.054754 -0.296340 0.000000
4.692000 -0.337476 -0.055505 -0.296340 0.000000
4.694000 -0.337476 -0.055212 -0.366705 0.000000
4.696000 -0.339010 -0.062501 -0.311475 0.000000
4.698000 -0.339010 -0.058756 -0.237444 0.000000
4.700000 -0.339010 -0.047904 -0.237444 0.000000
4.702000 -0.339010 -0.047612 -0.232848 0.000000
4.704000 -0.339010 -0.038559 -0.330517 0.000000
4.706000 -0.340544 -0.045657 -0.380136 0.000000
4.708000 -0.340544 -0.054630 -0.266881 0.000000
4.710000 -0.342078 -0.052857 -0.266881 0.000000
4.712000 -0.342078 -0.052598 -0.221886 0.000000
4.714000 -0.342078 -0.041457 -0.381105 0.000000
4.716000 -0.342078 -0.052879 -0.381105 0.000000
4.718000 -0.343612 -0.052639 -0.421658 0.000000
4.720000 -0.343612 -0.066273 -0.343818 0.000000
4.722000 -0.343612 -0.067330 -0.228587 0.000000
4.724000 -0.343612 -0.059287 -0.293177 0.000000
4.726000 -0.343612 -0.049730 -0.430962 0.000000
4.728000 -0.343612 -0.063814 -0.430962 0.000000
4.730000 -0.345146 -0.063533 -0.433776 0.000000
4.732000 -0.346680 -0.075261 -0.317938 0.000000
4.734000 -0.346680 -0.072403 -0.207400 0.000000
4.736000 -0.346680 -0.056082 -0.360116 0.000000
4.738000 -0.345146 -0.050605 -0.360116 0.000000
4.740000 -0.346680 -0.050303 -0.470580 0.000000
4.742000 -0.348214 -0.066833 -0.280005 0.000000
4.744000 -0.349748 -0.064520 -0.175220 0.000000
4.746000 -0.348214 -0.056476 -0.175220 0.000000
4.748000 -0.348214 -0.056148 -0.234071 0.000000
4.750000 -0.348214 -0.038995 -0.415262 0.000000
4.752000 -0.348214 -0.039340 -0.381048 0.000000
4.754000 -0.349748 -0.052637 -0.381048 0.000000
4.756000 -0.351282 -0.052412 -0.259829 0.000000
4.758000 -0.351282 -0.052301 -0.166293 0.000000
4.760000 -0.349748 -0.046330 -0.489732 0.000000
4.762000 -0.349748 -0.046992 -0.492030 0.000000
4.764000 -0.351282 -0.066075 -0.492030 0.000000
4.766000 -0.352816 -0.065826 -0.346383 0.000000
4.768000 -0.352816 -0.068193 -0.227142 0.000000
4.770000 -0.352816 -0.063083 -0.227142 0.000000
4.772000 -0.351282 -0.062731 -0.354553 0.000000
4.774000 -0.351282 -0.044666 -0.545200 0.000000
4.776000 -0.352816 -0.047141 -0.447336 0.000000
4.778000 -0.354350 -0.063603 -0.210712 0.000000
4.780000 -0.354350 -0.061332 -0.210712 0.000000
4.782000 -0.354350 -0.061028 -0.204524 0.000000
4.784000 -0.352816 -0.054080 -0.410022 0.000000
4.786000 -0.354350 -0.048810 -0.544462 0.000000
4.788000 -0.355884 -0.055185 -0.544462 0.000000
4.790000 -0.355884 -0.054930 -0.288475 0.000000
4.792000 -0.355884 -0.059757 -0.205447 0.000000
4.794000 -0.355884 -0.058154 -0.243780 0.000000
4.796000 -0.355884 -0.055024 -0.516945 0.000000
4.798000 -0.355884 -0.062517 -0.516945 0.000000
4.800000 -0.357418 -0.062228 -0.350424 0.000000
4.802000 -0.357418 -0.065901 -0.261461 0.000000
4.804000 -0.357418 -0.066411 -0.245469 0.000000
4.806000 -0.357418 -0.065156 -0.474561 0.000000
4.808000 -0.357418 -0.064007 -0.474561 0.000000
4.810000 -0.357418 -0.063675 -0.467478 0.000000
4.812000 -0.358952 -0.067885 -0.323702 0.000000
4.814000 -0.358952 -0.070201 -0.249160 0.000000
4.816000 -0.358952 -0.070638 -0.357098 0.000000
4.818000 -0.358952 -0.070112 -0.357098 0.000000
4.820000 -0.358952 -0.069743 -0.465349 0.000000
4.822000 -0.358952 -0.066650 -0.389838 0.000000
4.824000 -0.360485 -0.067434 -0.259425 0.000000
4.826000 -0.360485 -0.069098 -0.259425 0.000000
4.828000 -0.360485 -0.068734 -0.304788 0.000000
4.830000 -0.360485 -0.068301 -0.409859 0.000000
4.832000 -0.360485 -0.068880 -0.422412 0.000000
4.834000 -0.362019 -0.066548 -0.422412 0.000000
4.836000 -0.362019 -0.066192 -0.283131 0.000000
4.838000 -0.362019 -0.065429 -0.299895 0.000000
4.840000 -0.362019 -0.068019 -0.343378 0.000000
4.842000 -0.362019 -0.070247 -0.390883 0.000000
4.844000 -0.362019 -0.065950 -0.390883 0.000000
4.846000 -0.362019 -0.065593 -0.294533 0.000000
4.848000 -0.363553 -0.058179 -0.276651 0.000000
4.850000 -0.363553 -0.059467 -0.331035 0.000000
4.852000 -0.363553 -0.065431 -0.393480 0.000000
4.854000 -0.363553 -0.065166 -0.329062 0.000000
4.856000 -0.363553 -0.058260 -0.329062 0.000000
4.858000 -0.363553 -0.057931 -0.281524 0.000000
4.860000 -0.363553 -0.052322 -0.368267 0.000000
4.862000 -0.365087 -0.062532 -0.368267 0.000000
4.864000 -0.365087 -0.062227 -0.412244 0.000000
4.866000 -0.365087 -0.067926 -0.356270 0.000000
4.868000 -0.365087 -0.064016 -0.289385 0.000000
4.870000 -0.365087 -0.053790 -0.339088 0.000000
4.872000 -0.365087 -0.060504 -0.339088 0.000000
4.874000 -0.366621 -0.060195 -0.409907 0.000000
4.876000 -0.366621 -0.069434 -0.389325 0.000000
4.878000 -0.366621 -0.070757 -0.258985 0.000000
4.880000 -0.366621 -0.056308 -0.274859 0.000000
4.882000 -0.366621 -0.049830 -0.274859 0.000000
4.884000 -0.366621 -0.049519 -0.381267 0.000000
4.886000 -0.366621 -0.059333 -0.432637 0.000000
4.888000 -0.368155 -0.070204 -0.261324 0.000000
4.890000 -0.368155 -0.061144 -0.240420 0.000000
4.892000 -0.368155 -0.049513 -0.240420 0.000000
4.894000 -0.366621 -0.049195 -0.315271 0.000000
4.896000 -0.368155 -0.042164 -0.437252 0.000000
4.898000 -0.368155 -0.058331 -0.437252 0.000000
4.900000 -0.368155 -0.058071 -0.330928 0.000000
4.902000 -0.368155 -0.058438 -0.238307 0.000000
4.904000 -0.368155 -0.050505 -0.241273 0.000000
4.906000 -0.368155 -0.040037 -0.464108 0.000000
4.908000 -0.368155 -0.058885 -0.464108 0.000000
4.910000 -0.369689 -0.058632 -0.426993 0.000000
4.912000 -0.369689 -0.069328 -0.302200 0.000000
4.914000 -0.369689 -0.066258 -0.214393 0.000000
4.916000 -0.368155 -0.057030 -0.413304 0.000000
4.918000 -0.368155 -0.055201 -0.494459 0.000000
4.920000 -0.369689 -0.072341 -0.494459 0.000000
4.922000 -0.371223 -0.072027 -0.397327 0.000000
4.924000 -0.371223 -0.075370 -0.189043 0.000000
4.926000 -0.369689 -0.061561 -0.189043 0.000000
4.928000 -0.369689 -0.061171 -0.301622 0.000000
4.930000 -0.369689 -0.038410 -0.460151 0.000000
4.932000 -0.369689 -0.042205 -0.492723 0.000000
4.934000 -0.371223 -0.063198 -0.244636 0.000000
4.936000 -0.371223 -0.060750 -0.187765 0.000000
4.938000 -0.371223 -0.052693 -0.187765 0.000000
4.940000 -0.369689 -0.052379 -0.343439 0.000000
4.942000 -0.369689 -0.034875 -0.483537 0.000000
4.944000 -0.371223 -0.058794 -0.327990 0.000000
4.946000 -0.372757 -0.064124 -0.327990 0.000000
4.948000 -0.372757 -0.063830 -0.217211 0.000000
4.950000 -0.371223 -0.059023 -0.211693 0.000000
4.952000 -0.369689 -0.050527 -0.579970 0.000000
4.954000 -0.369689 -0.060620 -0.579970 0.000000
4.956000 -0.371223 -0.060330 -0.444207 0.000000
4.958000 -0.372757 -0.075118 -0.312965 0.000000
4.960000 -0.372757 -0.074655 -0.241936 0.000000
4.962000 -0.371223 -0.064311 -0.241936 0.000000
4.964000 -0.371223 -0.063926 -0.461744 0.000000
4.966000 -0.371223 -0.054369 -0.570746 0.000000
4.968000 -0.372757 -0.065677 -0.402227 0.000000
4.970000 -0.372757 -0.075389 -0.209853 0.000000
4.972000 -0.372757 -0.070072 -0.279288 0.000000
4.974000 -0.371223 -0.063308 -0.279288 0.000000
4.976000 -0.371223 -0.062930 -0.508175 0.000000
4.978000 -0.371223 -0.054501 -0.529782 0.000000
4.980000 -0.372757 -0.064238 -0.529782 0.000000
4.982000 -0.372757 -0.063922 -0.258708 0.000000
4.984000 -0.372757 -0.064026 -0.227708 0.000000
4.986000 -0.371223 -0.061206 -0.311450 0.000000
4.988000 -0.371223 -0.058075 -0.474951 0.000000
4.990000 -0.371223 -0.066275 -0.344431 0.000000
4.992000 -0.372757 -0.071400 -0.241038 0.000000
4.994000 -0.372757 -0.070813 -0.241038 0.000000
4.996000 -0.371223 -0.070432 -0.253254 0.000000
4.998000 -0.371223 -0.066175 -0.511174 0.000000
5.000000 -0.371223 -0.065368 -0.417194 0.000000
5.002000 -0.371223 -0.069725 -0.417194 0.000000
5.004000 -0.372757 -0.069361 -0.323576 0.000000
5.006000 -0.372757 -0.071343 -0.287438 0.000000
5.008000 -0.371223 -0.068703 -0.429407 0.000000
5.010000 -0.371223 -0.067530 -0.429407 0.000000
5.012000 -0.371223 -0.067151 -0.465520 0.000000
5.014000 -0.371223 -0.063901 -0.350945 0.000000
5.016000 -0.371223 -0.064132 -0.286715 0.000000
5.018000 -0.372757 -0.066777 -0.286715 0.000000
5.020000 -0.371223 -0.066414 -0.314182 0.000000
5.022000 -0.371223 -0.064094 -0.437268 0.000000
5.024000 -0.371223 -0.061811 -0.318763 0.000000
5.026000 -0.371223 -0.060658 -0.318763 0.000000
5.028000 -0.371223 -0.060313 -0.270357 0.000000
5.030000 -0.371223 -0.061097 -0.307459 0.000000
5.032000 -0.371223 -0.062419 -0.357750 0.000000
5.034000 -0.371223 -0.062768 -0.381484 0.000000
5.036000 -0.371223 -0.060303 -0.381484 0.000000
5.038000 -0.371223 -0.059964 -0.303122 0.000000
5.040000 -0.371223 -0.057948 -0.279892 0.000000
5.042000 -0.371223 -0.060818 -0.400243 0.000000
5.044000 -0.371223 -0.064454 -0.404762 0.000000
5.046000 -0.371223 -0.062489 -0.320554 0.000000
5.048000 -0.371223 -0.056583 -0.320554 0.000000
5.050000 -0.371223 -0.056247 -0.289587 0.000000
5.052000 -0.371223 -0.055148 -0.353944 0.000000
5.054000 -0.371223 -0.062248 -0.353944 0.000000
5.056000 -0.371223 -0.061924 -0.396615 0.000000
5.058000 -0.371223 -0.064106 -0.361821 0.000000
5.060000 -0.369689 -0.059171 -0.288291 0.000000
5.062000 -0.369689 -0.050599 -0.346497 0.000000
5.064000 -0.369689 -0.059382 -0.346497 0.000000
5.066000 -0.369689 -0.059072 -0.387168 0.000000
5.068000 -0.369689 -0.066330 -0.387428 0.000000
5.070000 -0.369689 -0.067657 -0.283345 0.000000
5.072000 -0.369689 -0.056577 -0.277904 0.000000
5.074000 -0.369689 -0.053708 -0.277904 0.000000
5.076000 -0.369689 -0.053381 -0.378802 0.000000
5.078000 -0.369689 -0.062156 -0.413829 0.000000
5.080000 -0.369689 -0.069972 -0.282450 0.000000
5.082000 -0.369689 -0.061704 -0.282450 0.000000
5.084000 -0.368155 -0.061342 -0.263325 0.000000
5.086000 -0.368155 -0.047926 -0.315324 0.000000
5.088000 -0.368155 -0.045921 -0.426213 0.000000
5.090000 -0.368155 -0.059571 -0.350376 0.000000
5.092000 -0.369689 -0.061457 -0.350376 0.000000
5.094000 -0.368155 -0.061137 -0.265309 0.000000
5.096000 -0.368155 -0.051774 -0.249696 0.000000
5.098000 -0.368155 -0.042228 -0.431698 0.000000
5.100000 -0.368155 -0.059065 -0.417512 0.000000
5.102000 -0.368155 -0.068877 -0.314808 0.000000
5.104000 -0.368155 -0.067325 -0.314808 0.000000
5.106000 -0.368155 -0.066966 -0.259386 0.000000
5.108000 -0.366621 -0.049110 -0.379389 0.000000
5.110000 -0.366621 -0.049773 -0.379389 0.000000
5.112000 -0.366621 -0.049466 -0.454946 0.000000
5.114000 -0.368155 -0.067130 -0.403268 0.000000
5.116000 -0.368155 -0.072713 -0.218911 0.000000
5.118000 -0.366621 -0.061259 -0.218911 0.000000
5.120000 -0.365087 -0.060884 -0.281347 0.000000
5.122000 -0.365087 -0.038546 -0.427490 0.000000
5.124000 -0.366621 -0.043504 -0.482202 0.000000
5.126000 -0.366621 -0.064416 -0.272705 0.000000
5.128000 -0.366621 -0.063007 -0.205771 0.000000
5.130000 -0.365087 -0.055259 -0.205771 0.000000
5.132000 -0.365087 -0.054919 -0.310837 0.000000
5.134000 -0.365087 -0.033677 -0.474078 0.000000
5.136000 -0.365087 -0.057390 -0.357616 0.000000
5.138000 -0.366621 -0.062904 -0.357616 0.000000
5.140000 -0.365087 -0.062597 -0.234077 0.000000
5.142000 -0.365087 -0.057799 -0.187492 0.000000
5.144000 -0.363553 -0.048684 -0.498097 0.000000
5.146000 -0.363553 -0.052835 -0.498097 0.000000
5.148000 -0.363553 -0.052541 -0.467215 0.000000
5.150000 -0.365087 -0.072042 -0.339188 0.000000
5.152000 -0.365087 -0.072838 -0.192898 0.000000
5.154000 -0.363553 -0.060235 -0.388384 0.000000
5.156000 -0.362019 -0.040635 -0.543556 0.000000
5.158000 -0.362019 -0.047814 -0.543556 0.000000
5.160000 -0.362019 -0.047544 -0.444228 0.000000
5.162000 -0.363553 -0.067912 -0.203088 0.000000
5.164000 -0.363553 -0.064627 -0.200081 0.000000
5.166000 -0.362019 -0.056071 -0.411157 0.000000
5.168000 -0.360485 -0.044179 -0.411157 0.000000
5.170000 -0.360485 -0.043867 -0.418533 0.000000
5.172000 -0.362019 -0.063158 -0.298793 0.000000
5.174000 -0.362019 -0.067108 -0.194492 0.000000
5.176000 -0.362019 -0.063430 -0.194492 0.000000
