time ax ay az button
0.000000 -0.000000 0.000000 0.000000 0.000000
0.002000 -0.000000 -0.000000 0.000000 0.000000
0.004000 -0.000000 -0.000000 0.000000 0.000000
0.006000 -0.000000 -0.000000 0.000000 0.000000
0.008000 -0.000000 -0.000000 -0.073955 0.000000
0.010000 -0.000000 -0.073915 -0.071626 0.000000
0.012000 -0.000000 -0.069417 -0.065292 0.000000
0.014000 -0.000000 -0.066234 -0.049689 0.000000
0.016000 -0.000000 -0.060079 -0.049689 0.000000
0.018000 -0.000000 -0.059870 -0.047641 0.000000
0.020000 -0.000000 -0.055827 -0.079304 0.000000
0.022000 -0.000000 -0.066205 -0.079280 0.000000
0.024000 -0.000000 -0.071835 -0.079280 0.000000
0.026000 -0.000000 -0.071614 -0.078404 0.000000
0.028000 -0.000000 -0.074641 -0.090114 0.000000
0.030000 -0.000000 -0.080371 -0.083367 0.000000
0.032000 -0.000000 -0.081611 -0.072416 0.000000
0.034000 -0.000000 -0.079028 -0.072416 0.000000
0.036000 -0.000000 -0.078739 -0.070003 0.000000
0.038000 -0.000000 -0.075867 -0.092503 0.000000
0.040000 -0.000000 -0.082283 -0.094575 0.000000
0.042000 -0.000000 -0.086786 -0.094575 0.000000
0.044000 -0.000000 -0.086485 -0.097364 0.000000
0.046000 -0.000000 -0.090836 -0.115204 0.000000
0.048000 -0.000000 -0.098841 -0.108518 0.000000
0.050000 -0.000000 -0.101515 -0.091441 0.000000
0.052000 -0.000000 -0.097797 -0.091441 0.000000
0.054000 -0.000000 -0.097417 -0.084792 0.000000
0.056000 -0.000000 -0.091581 -0.073596 0.000000
0.058000 -0.000000 -0.085471 -0.064499 0.000000
0.060000 -0.000000 -0.079271 -0.070302 0.000000
0.062000 -0.000000 -0.077473 -0.070302 0.000000
0.064000 -0.000000 -0.077165 -0.075626 0.000000
0.066000 -0.000000 -0.076633 -0.078341 0.000000
0.068000 -0.000000 -0.077782 -0.075979 0.000000
0.070000 0.001534 -0.077910 -0.075979 0.000000
0.072000 0.001534 -0.077628 -0.078017 0.000000
0.074000 0.001534 -0.077946 -0.070971 0.000000
0.076000 0.001534 -0.076259 -0.069788 0.000000
0.078000 0.001534 -0.074267 -0.071433 0.000000
0.080000 0.001534 -0.073155 -0.071433 0.000000
0.082000 0.001534 -0.072892 -0.078249 0.000000
0.084000 0.001534 -0.075143 -0.090833 0.000000
0.086000 0.001534 -0.081814 -0.099995 0.000000
0.088000 0.001534 -0.088600 -0.099995 0.000000
0.090000 -0.000000 -0.088315 -0.106069 0.000000
0.092000 -0.000000 -0.095165 -0.108762 0.000000
0.094000 -0.000000 -0.099163 -0.107065 0.000000
0.096000 -0.000000 -0.101289 -0.099207 0.000000
0.098000 -0.000000 -0.100270 -0.099207 0.000000
0.100000 -0.000000 -0.099905 -0.091198 0.000000
0.102000 -0.000000 -0.096036 -0.075894 0.000000
0.104000 -0.000000 -0.089530 -0.064875 0.000000
0.106000 -0.000000 -0.081839 -0.064875 0.000000
0.108000 -0.000000 -0.081521 -0.062594 0.000000
0.110000 -0.000000 -0.075036 -0.055661 0.000000
0.112000 -0.000000 -0.069943 -0.055185 0.000000
0.114000 -0.000000 -0.066237 -0.046369 0.000000
0.116000 -0.000000 -0.060651 -0.046369 0.000000
0.118000 -0.000000 -0.060423 -0.048384 0.000000
0.120000 -0.000000 -0.056570 -0.048161 0.000000
0.122000 -0.000000 -0.054860 -0.043276 0.000000
0.124000 -0.000000 -0.051398 -0.051635 0.000000
0.126000 -0.000000 -0.052294 -0.051635 0.000000
0.128000 -0.000000 -0.052122 -0.078539 0.000000
0.130000 -0.000000 -0.062171 -0.087812 0.000000
0.132000 -0.000000 -0.071865 -0.099528 0.000000
0.134000 -0.000000 -0.081651 -0.099528 0.000000
0.136000 -0.000000 -0.081405 -0.097690 0.000000
0.138000 -0.000000 -0.088110 -0.108661 0.000000
0.140000 -0.000000 -0.095016 -0.105361 0.000000
0.142000 -0.000000 -0.098744 -0.093362 0.000000
0.144000 -0.000000 -0.097361 -0.093362 0.000000
0.146000 -0.000000 -0.097007 -0.077623 0.000000
0.148000 -0.000000 -0.089452 -0.078406 0.000000
0.150000 -0.000000 -0.086743 -0.073096 0.000000
0.152000 -0.000000 -0.083137 -0.073096 0.000000
0.154000 -0.000000 -0.082826 -0.075298 0.000000
0.156000 -0.000000 -0.080105 -0.101098 0.000000
0.158000 -0.000000 -0.086889 -0.100765 0.000000
0.160000 -0.000000 -0.090580 -0.091545 0.000000
0.162000 -0.000000 -0.089980 -0.091545 0.000000
0.164000 -0.000000 -0.089655 -0.080374 0.000000
0.166000 -0.000000 -0.085287 -0.060914 0.000000
0.168000 -0.000000 -0.077388 -0.048218 0.000000
0.170000 -0.000000 -0.068517 -0.041629 0.000000
0.172000 -0.000000 -0.061631 -0.041629 0.000000
0.174000 -0.000000 -0.061393 -0.071219 0.000000
0.176000 -0.000000 -0.070599 -0.094524 0.000000
0.178000 -0.000000 -0.081691 -0.115585 0.000000
0.180000 -0.000000 -0.094183 -0.115585 0.000000
0.182000 -0.000000 -0.093908 -0.135258 0.000000
0.184000 -0.000000 -0.110201 -0.155181 0.000000
0.186000 -0.000000 -0.123951 -0.120903 0.000000
0.188000 -0.000000 -0.119902 -0.089294 0.000000
0.190000 -0.000000 -0.107192 -0.089294 0.000000
0.192000 -0.000000 -0.106772 -0.047853 0.000000
0.194000 -0.000000 -0.081176 -0.041756 0.000000
0.196000 -0.000000 -0.067698 -0.032649 0.000000
0.198000 -0.000000 -0.056927 -0.032649 0.000000
0.200000 -0.000000 -0.056680 -0.044797 0.000000
0.202000 -0.000000 -0.054598 -0.110085 0.000000
0.204000 -0.000000 -0.078604 -0.144484 0.000000
0.206000 -0.000000 -0.103005 -0.148033 0.000000
0.208000 -0.000000 -0.119354 -0.148033 0.000000
0.210000 -0.000000 -0.118982 -0.141087 0.000000
0.212000 -0.000000 -0.127441 -0.054366 0.000000
0.214000 -0.000000 -0.099097 -0.003785 0.000000
0.216000 -0.000000 -0.065400 0.018802 0.000000
0.218000 -0.000000 -0.037333 0.018802 0.000000
0.220000 -0.000000 -0.037091 -0.009110 0.000000
0.222000 -0.000000 -0.028656 -0.047236 0.000000
0.224000 -0.000000 -0.036836 -0.075118 0.000000
0.226000 -0.000000 -0.051198 -0.075118 0.000000
0.228000 -0.000000 -0.051067 -0.110651 0.000000
0.230000 -0.000000 -0.075791 -0.153996 0.000000
0.232000 -0.000000 -0.103797 -0.113055 0.000000
0.234000 -0.000000 -0.106321 -0.079893 0.000000
0.236000 -0.000000 -0.097661 -0.079893 0.000000
0.238000 -0.000000 -0.097283 -0.002817 0.000000
0.240000 -0.000000 -0.062725 -0.012523 0.000000
0.242000 -0.000000 -0.046704 -0.041194 0.000000
0.244000 -0.000000 -0.045322 -0.041194 0.000000
0.246000 -0.000000 -0.045127 -0.081083 0.000000
0.248000 -0.000000 -0.059205 -0.167821 0.000000
0.250000 -0.000000 -0.092938 -0.146069 0.000000
0.252000 -0.000000 -0.106223 -0.097842 0.000000
0.254000 -0.000000 -0.099278 -0.097842 0.000000
0.256000 -0.000000 -0.098889 -0.068106 0.000000
0.258000 -0.000000 -0.084245 -0.000835 0.000000
0.260000 -0.000000 -0.057837 0.020819 0.000000
0.262000 -0.000000 -0.035204 0.020819 0.000000
0.264000 -0.000000 -0.034985 -0.006641 0.000000
0.266000 -0.000000 -0.029958 -0.135927 0.000000
0.268000 -0.000000 -0.075406 -0.161167 0.000000
0.270000 -0.000000 -0.104329 -0.154929 0.000000
0.272000 -0.000000 -0.118261 -0.154929 0.000000
0.274000 -0.000000 -0.117876 -0.104317 0.000000
0.276000 -0.000000 -0.106915 -0.027263 0.000000
0.278000 -0.000000 -0.072056 -0.014155 0.000000
0.280000 -0.000000 -0.051436 -0.009492 0.000000
0.282000 -0.000000 -0.039558 -0.009492 0.000000
0.284000 -0.000000 -0.039343 -0.088525 0.000000
0.286000 -0.000000 -0.065773 -0.136855 0.000000
0.288000 -0.000000 -0.094291 -0.145781 0.000000
0.290000 -0.000000 -0.113684 -0.145781 0.000000
0.292000 -0.000000 -0.113347 -0.141994 0.000000
0.294000 -0.000000 -0.123476 -0.081609 0.000000
0.296000 -0.000000 -0.105953 -0.043231 0.000000
0.298000 0.001534 -0.082134 -0.022707 0.000000
0.300000 0.001534 -0.060544 -0.022707 0.000000
0.302000 0.001534 -0.060189 -0.062726 0.000000
0.304000 0.001534 -0.061210 -0.090474 0.000000
0.306000 0.001534 -0.071366 -0.089945 0.000000
0.308000 0.001534 -0.077155 -0.089945 0.000000
0.310000 0.001534 -0.076867 -0.073216 0.000000
0.312000 0.001534 -0.074941 -0.063276 0.000000
0.314000 0.001534 -0.071828 -0.053787 0.000000
0.316000 0.001534 -0.066744 -0.050577 0.000000
0.318000 0.001534 -0.061839 -0.050577 0.000000
0.320000 0.003068 -0.061555 -0.055331 0.000000
0.322000 0.003068 -0.058913 -0.073226 0.000000
0.324000 0.003068 -0.065502 -0.062405 0.000000
0.326000 0.003068 -0.063720 -0.043080 0.000000
0.328000 0.003068 -0.056223 -0.043080 0.000000
0.330000 0.003068 -0.055935 -0.055734 0.000000
0.332000 0.003068 -0.059396 -0.075335 0.000000
0.334000 0.003068 -0.067576 -0.104200 0.000000
0.336000 0.003068 -0.080379 -0.104200 0.000000
0.338000 0.003068 -0.080115 -0.145392 0.000000
0.340000 0.003068 -0.104478 -0.139618 0.000000
0.342000 0.003068 -0.112278 -0.100547 0.000000
0.344000 0.003068 -0.102811 -0.054510 0.000000
0.346000 0.004602 -0.081596 -0.054510 0.000000
0.348000 0.004602 -0.081138 -0.009706 0.000000
0.350000 0.004602 -0.055455 -0.016512 0.000000
0.352000 0.004602 -0.047738 -0.048282 0.000000
0.354000 0.004602 -0.052948 -0.048282 0.000000
0.356000 0.004602 -0.052713 -0.111190 0.000000
0.358000 0.004602 -0.078535 -0.168514 0.000000
0.360000 0.004602 -0.108603 -0.130205 0.000000
0.362000 0.004602 -0.110415 -0.077182 0.000000
0.364000 0.004602 -0.093055 -0.077182 0.000000
0.366000 0.004602 -0.092593 -0.032555 0.000000
0.368000 0.006136 -0.061447 -0.006555 0.000000
0.370000 0.006136 -0.042659 -0.009408 0.000000
0.372000 0.006136 -0.034549 -0.009404 0.000000
0.374000 0.006136 -0.030066 -0.009404 0.000000
0.376000 0.006136 -0.029878 -0.057961 0.000000
0.378000 0.006136 -0.048756 -0.076196 0.000000
0.380000 0.006136 -0.059800 -0.093800 0.000000
0.382000 0.006136 -0.072846 -0.093800 0.000000
0.384000 0.006136 -0.072578 -0.115611 0.000000
0.386000 0.006136 -0.087986 -0.135872 0.000000
0.388000 0.007670 -0.096771 -0.105325 0.000000
0.390000 0.007670 -0.094891 -0.046664 0.000000
0.392000 0.007670 -0.076156 -0.046664 0.000000
0.394000 0.009204 -0.075724 0.036405 0.000000
0.396000 0.009204 -0.032067 0.049323 0.000000
0.398000 0.009204 -0.004982 0.013947 0.000000
0.400000 0.009204 -0.001979 0.013947 0.000000
0.402000 0.009204 -0.001871 -0.060405 0.000000
0.404000 0.007670 -0.030454 -0.224999 0.000000
0.406000 0.007670 -0.098528 -0.210152 0.000000
0.408000 0.009204 -0.130797 -0.130624 0.000000
0.410000 0.009204 -0.124536 -0.130624 0.000000
0.412000 0.010738 -0.123988 0.039732 0.000000
0.414000 0.010738 -0.052265 0.089242 0.000000
0.416000 0.010738 -0.002453 0.100423 0.000000
0.418000 0.010738 0.028368 0.100423 0.000000
0.420000 0.010738 0.028513 0.065931 0.000000
0.422000 0.010738 0.035248 -0.185720 0.000000
0.424000 0.010738 -0.051372 -0.246378 0.000000
0.426000 0.010738 -0.114679 -0.201901 0.000000
0.428000 0.012272 -0.137290 -0.201901 0.000000
0.430000 0.012272 -0.136842 -0.067427 0.000000
0.432000 0.012272 -0.096633 -0.017451 0.000000
0.434000 0.013806 -0.065852 0.024660 0.000000
0.436000 0.013806 -0.036355 0.063628 0.000000
0.438000 0.013806 -0.007017 0.063628 0.000000
0.440000 0.013806 -0.006739 -0.041499 0.000000
0.442000 0.013806 -0.030278 -0.106663 0.000000
0.444000 0.015340 -0.060706 -0.130477 0.000000
0.446000 0.015340 -0.082230 -0.130477 0.000000
0.448000 0.015340 -0.081959 -0.122225 0.000000
0.450000 0.015340 -0.087963 -0.134935 0.000000
0.452000 0.015340 -0.101270 -0.110255 0.000000
0.454000 0.015340 -0.100317 -0.079302 0.000000
0.456000 0.015340 -0.089087 -0.079302 0.000000
0.458000 0.016874 -0.088561 0.012425 0.000000
0.460000 0.016874 -0.050413 0.037065 0.000000
0.462000 0.016874 -0.020510 0.059814 0.000000
0.464000 0.016874 0.005976 0.059814 0.000000
0.466000 0.018408 0.006144 -0.011391 0.000000
0.468000 0.018408 -0.007063 -0.115007 0.000000
0.470000 0.018408 -0.047355 -0.178682 0.000000
0.472000 0.018408 -0.088677 -0.178489 0.000000
0.474000 0.018408 -0.114667 -0.178489 0.000000
0.476000 0.018408 -0.114214 -0.094898 0.000000
0.478000 0.019942 -0.102592 -0.015689 0.000000
0.480000 0.019942 -0.067702 0.072537 0.000000
0.482000 0.019942 -0.014658 0.072537 0.000000
0.484000 0.019942 -0.014302 0.121554 0.000000
0.486000 0.021476 0.040193 -0.008167 0.000000
0.488000 0.021476 0.011595 -0.121357 0.000000
0.490000 0.021476 -0.033282 -0.161280 0.000000
0.492000 0.021476 -0.074519 -0.161280 0.000000
0.494000 0.021476 -0.074285 -0.144095 0.000000
0.496000 0.021476 -0.104516 -0.093897 0.000000
0.498000 0.021476 -0.093363 -0.032474 0.000000
0.500000 0.023010 -0.063131 0.024036 0.000000
0.502000 0.023010 -0.030849 0.024036 0.000000
0.504000 0.023010 -0.030450 0.016937 0.000000
0.506000 0.024544 -0.023942 -0.035579 0.000000
0.508000 0.024544 -0.026638 -0.062615 0.000000
0.510000 0.024544 -0.038863 -0.062615 0.000000
0.512000 0.024544 -0.038634 -0.086505 0.000000
0.514000 0.026078 -0.057385 -0.072534 0.000000
0.516000 0.026078 -0.058698 -0.048492 0.000000
0.518000 0.026078 -0.051360 -0.040078 0.000000
0.520000 0.026078 -0.047158 -0.040078 0.000000
0.522000 0.026078 -0.046808 -0.041833 0.000000
0.524000 0.027612 -0.046118 -0.055533 0.000000
0.526000 0.027612 -0.048514 -0.019922 0.000000
0.528000 0.027612 -0.036877 -0.019922 0.000000
0.530000 0.029146 -0.036557 0.005045 0.000000
0.532000 0.029146 -0.018756 -0.009260 0.000000
0.534000 0.029146 -0.017294 -0.017966 0.000000
0.536000 0.029146 -0.019900 -0.051706 0.000000
0.538000 0.029146 -0.032069 -0.051706 0.000000
0.540000 0.029146 -0.031862 -0.155289 0.000000
0.542000 0.029146 -0.074784 -0.155085 0.000000
0.544000 0.030680 -0.099273 -0.093339 0.000000
0.546000 0.030680 -0.091408 -0.093339 0.000000
0.548000 0.030680 -0.090910 0.023231 0.000000
0.550000 0.032214 -0.036904 0.051625 0.000000
0.552000 0.032214 -0.007711 0.045780 0.000000
0.554000 0.032214 0.006178 0.014785 0.000000
0.556000 0.032214 0.005972 0.014785 0.000000
0.558000 0.032214 0.006113 -0.111977 0.000000
0.560000 0.032214 -0.046345 -0.186582 0.000000
0.562000 0.032214 -0.095642 -0.165036 0.000000
0.564000 0.033748 -0.111567 -0.094724 0.000000
0.566000 0.033748 -0.096817 -0.094724 0.000000
0.568000 0.035282 -0.096290 0.008422 0.000000
0.570000 0.035282 -0.048291 0.053120 0.000000
0.572000 0.035282 -0.012301 0.074681 0.000000
0.574000 0.036816 0.015094 0.074681 0.000000
0.576000 0.036816 0.015312 -0.001018 0.000000
0.578000 0.036816 -0.001441 -0.060927 0.000000
0.580000 0.036816 -0.023251 -0.103456 0.000000
0.582000 0.036816 -0.048648 -0.107361 0.000000
0.584000 0.036816 -0.065125 -0.107361 0.000000
0.586000 0.038350 -0.064826 -0.074577 0.000000
0.588000 0.038350 -0.060518 -0.047364 0.000000
0.590000 0.038350 -0.051955 -0.015218 0.000000
0.592000 0.039884 -0.037987 -0.015218 0.000000
0.594000 0.039884 -0.037625 0.051862 0.000000
0.596000 0.039884 -0.007188 0.017426 0.000000
0.598000 0.039884 0.001306 -0.011514 0.000000
0.600000 0.041417 -0.000936 -0.023364 0.000000
0.602000 0.041417 -0.007264 -0.023364 0.000000
0.604000 0.041417 -0.007115 -0.087442 0.000000
0.606000 0.041417 -0.037176 -0.106659 0.000000
0.608000 0.041417 -0.057527 -0.087285 0.000000
0.610000 0.042951 -0.064445 -0.087285 0.000000
0.612000 0.042951 -0.064081 -0.010052 0.000000
0.614000 0.042951 -0.043246 0.034565 0.000000
0.616000 0.044485 -0.013746 0.051858 0.000000
0.618000 0.044485 0.011876 0.067718 0.000000
0.620000 0.044485 0.031055 0.067718 0.000000
0.622000 0.044485 0.031190 -0.011948 0.000000
0.624000 0.044485 0.006779 -0.073970 0.000000
0.626000 0.046019 -0.020203 -0.097967 0.000000
0.628000 0.046019 -0.043696 -0.085575 0.000000
0.630000 0.046019 -0.057612 -0.085575 0.000000
0.632000 0.047553 -0.057320 -0.038055 0.000000
0.634000 0.047553 -0.046508 -0.000069 0.000000
0.636000 0.047553 -0.025710 0.042311 0.000000
0.638000 0.047553 0.001339 0.042311 0.000000
0.640000 0.049087 0.001602 0.017841 0.000000
0.642000 0.049087 0.004352 -0.019867 0.000000
0.644000 0.049087 -0.003910 -0.063703 0.000000
0.646000 0.049087 -0.023658 -0.085814 0.000000
0.648000 0.050621 -0.044733 -0.085814 0.000000
0.650000 0.050621 -0.044504 -0.074298 0.000000
0.652000 0.050621 -0.056649 -0.061161 0.000000
0.654000 0.050621 -0.055266 -0.027244 0.000000
0.656000 0.050621 -0.039773 -0.027244 0.000000
0.658000 0.050621 -0.039426 -0.016610 0.000000
0.660000 0.052155 -0.025802 -0.033942 0.000000
0.662000 0.052155 -0.026792 -0.042834 0.000000
0.664000 0.052155 -0.030232 -0.020602 0.000000
0.666000 0.053689 -0.026287 -0.020602 0.000000
0.668000 0.053689 -0.026017 0.001659 0.000000
0.670000 0.053689 -0.018698 0.002016 0.000000
0.672000 0.055223 -0.012013 0.019455 0.000000
0.674000 0.055223 -0.000639 0.019455 0.000000
0.676000 0.055223 -0.000468 -0.033968 0.000000
0.678000 0.055223 -0.013052 -0.088150 0.000000
0.680000 0.055223 -0.037727 -0.085723 0.000000
0.682000 0.055223 -0.049579 -0.049605 0.000000
0.684000 0.056757 -0.044897 -0.049605 0.000000
0.686000 0.056757 -0.044553 0.036298 0.000000
0.688000 0.058291 -0.013784 0.080855 0.000000
0.690000 0.058291 0.017853 0.094311 0.000000
0.692000 0.058291 0.042359 -0.018060 0.000000
0.694000 0.058291 0.020395 -0.018060 0.000000
0.696000 0.058291 0.020439 -0.082764 0.000000
0.698000 0.058291 -0.018126 -0.124131 0.000000
0.700000 0.058291 -0.051314 -0.118412 0.000000
0.702000 0.059825 -0.068730 -0.118412 0.000000
0.704000 0.059825 -0.068369 -0.016642 0.000000
0.706000 0.061359 -0.042926 0.064763 0.000000
0.708000 0.061359 -0.004371 0.143524 0.000000
0.710000 0.061359 0.046065 0.146103 0.000000
0.712000 0.061359 0.079489 0.146103 0.000000
0.714000 0.061359 0.079465 -0.005917 0.000000
0.716000 0.061359 0.042220 -0.083568 0.000000
0.718000 0.062893 -0.001412 -0.118762 0.000000
0.720000 0.062893 -0.037619 -0.118762 0.000000
0.722000 0.062893 -0.037441 -0.061148 0.000000
0.724000 0.064427 -0.039602 0.001636 0.000000
0.726000 0.064427 -0.022104 0.068288 0.000000
0.728000 0.064427 0.010231 0.121399 0.000000
0.730000 0.065961 0.047735 0.121399 0.000000
0.732000 0.065961 0.047838 0.065852 0.000000
0.734000 0.065961 0.049235 -0.013617 0.000000
0.736000 0.065961 0.024831 -0.067365 0.000000
0.738000 0.065961 -0.006301 -0.067365 0.000000
0.740000 0.067495 -0.006217 -0.089722 0.000000
0.742000 0.067495 -0.035482 -0.059064 0.000000
0.744000 0.067495 -0.041522 -0.012330 0.000000
0.746000 0.069029 -0.029026 0.046563 0.000000
0.748000 0.069029 -0.001030 0.046563 0.000000
0.750000 0.069029 -0.000809 0.055083 0.000000
0.752000 0.069029 0.024020 0.011952 0.000000
0.754000 0.069029 0.020565 -0.020041 0.000000
0.756000 0.069029 0.006813 -0.031704 0.000000
0.758000 0.070563 -0.006912 -0.031704 0.000000
0.760000 0.070563 -0.006792 -0.041933 0.000000
0.762000 0.070563 -0.020241 -0.028723 0.000000
0.764000 0.070563 -0.021964 -0.002370 0.000000
0.766000 0.072097 -0.013129 -0.002370 0.000000
0.768000 0.072097 -0.012943 -0.007213 0.000000
0.770000 0.072097 -0.005688 -0.021787 0.000000
0.772000 0.072097 -0.008732 -0.009160 0.000000
0.774000 0.072097 -0.006444 0.004918 0.000000
0.776000 0.073631 -0.000707 0.004918 0.000000
0.778000 0.073631 -0.000506 0.039857 0.000000
0.780000 0.073631 0.014345 0.044186 0.000000
0.782000 0.075165 0.023350 0.033152 0.000000
0.784000 0.075165 0.025229 0.033152 0.000000
0.786000 0.075165 0.025256 -0.031698 0.000000
0.788000 0.075165 0.002156 -0.067419 0.000000
0.790000 0.075165 -0.019996 -0.062622 0.000000
0.792000 0.075165 -0.030927 -0.034661 0.000000
0.794000 0.076699 -0.028542 -0.034661 0.000000
0.796000 0.076699 -0.028267 0.047309 0.000000
0.798000 0.076699 0.003581 0.092888 0.000000
0.800000 0.078233 0.033625 0.112774 0.000000
0.802000 0.078233 0.058332 -0.007327 0.000000
0.804000 0.078233 0.034015 -0.007327 0.000000
0.806000 0.078233 0.033974 -0.079758 0.000000
0.808000 0.078233 -0.009414 -0.104880 0.000000
0.810000 0.078233 -0.040203 -0.082219 0.000000
0.812000 0.078233 -0.050162 -0.082219 0.000000
0.814000 0.079767 -0.049876 0.011422 0.000000
0.816000 0.079767 -0.018928 0.071627 0.000000
0.818000 0.079767 0.014633 0.121747 0.000000
0.820000 0.081301 0.050425 0.069029 0.000000
0.822000 0.081301 0.053663 0.069029 0.000000
0.824000 0.081301 0.053636 -0.011926 0.000000
0.826000 0.081301 0.026554 -0.082178 0.000000
0.828000 0.081301 -0.011744 -0.093410 0.000000
0.830000 0.081301 -0.037428 -0.093410 0.000000
0.832000 0.082835 -0.037251 -0.012749 0.000000
0.834000 0.082835 -0.021425 0.043693 0.000000
0.836000 0.082835 0.004832 0.093612 0.000000
0.838000 0.082835 0.036310 0.118830 0.000000
0.840000 0.082835 0.063585 0.118830 0.000000
0.842000 0.084369 0.063578 0.032901 0.000000
0.844000 0.084369 0.049605 -0.030294 0.000000
0.846000 0.084369 0.020258 -0.069327 0.000000
0.848000 0.084369 -0.010213 -0.026484 0.000000
0.850000 0.084369 -0.013290 -0.026484 0.000000
0.852000 0.085903 -0.013160 0.014794 0.000000
0.854000 0.085903 0.000825 0.068040 0.000000
0.856000 0.085903 0.026580 0.095555 0.000000
0.858000 0.085903 0.050551 0.095555 0.000000
0.860000 0.085903 0.050565 0.049364 0.000000
0.862000 0.085903 0.050574 -0.007463 0.000000
0.864000 0.087437 0.030527 -0.045210 0.000000
0.866000 0.087437 0.005622 -0.014839 0.000000
0.868000 0.087437 0.000758 -0.014839 0.000000
0.870000 0.087437 0.000844 0.024774 0.000000
0.872000 0.087437 0.012853 0.061854 0.000000
0.874000 0.088971 0.031416 0.087284 0.000000
0.876000 0.088971 0.050331 0.087284 0.000000
0.878000 0.088971 0.050312 0.051859 0.000000
0.880000 0.088971 0.051745 0.003571 0.000000
0.882000 0.088971 0.035312 -0.036610 0.000000
0.884000 0.088971 0.011238 -0.016093 0.000000
0.886000 0.088971 0.004842 -0.016093 0.000000
0.888000 0.090505 0.004915 0.023095 0.000000
0.890000 0.090505 0.014732 0.064250 0.000000
0.892000 0.090505 0.033128 0.095617 0.000000
0.894000 0.090505 0.053720 0.095617 0.000000
0.896000 0.090505 0.053679 0.067308 0.000000
0.898000 0.092039 0.059034 0.019295 0.000000
0.900000 0.092039 0.045442 -0.024131 0.000000
0.902000 0.092039 0.021985 -0.027716 0.000000
0.904000 0.092039 0.007335 -0.027716 0.000000
0.906000 0.092039 0.007378 -0.006974 0.000000
0.908000 0.092039 0.003875 0.024883 0.000000
0.910000 0.093573 0.012843 0.065090 0.000000
0.912000 0.093573 0.031538 0.074651 0.000000
0.914000 0.093573 0.045785 0.074651 0.000000
0.916000 0.093573 0.045755 0.042551 0.000000
0.918000 0.093573 0.044525 0.008358 0.000000
0.920000 0.093573 0.031592 0.002210 0.000000
0.922000 0.093573 0.021881 0.002210 0.000000
0.924000 0.093573 0.021889 0.012683 0.000000
0.926000 0.095107 0.019368 0.011108 0.000000
0.928000 0.095107 0.017851 0.027212 0.000000
0.930000 0.095107 0.023046 0.029308 0.000000
0.932000 0.095107 0.026468 0.029308 0.000000
0.934000 0.095107 0.026472 0.016126 0.000000
0.936000 0.095107 0.023640 0.005238 0.000000
0.938000 0.096641 0.017434 0.020546 0.000000
0.940000 0.096641 0.018729 0.020546 0.000000
0.942000 0.096641 0.018770 0.058221 0.000000
0.944000 0.096641 0.032947 0.049962 0.000000
0.946000 0.096641 0.039517 0.044368 0.000000
0.948000 0.096641 0.041961 -0.012698 0.000000
0.950000 0.096641 0.025560 -0.012698 0.000000
0.952000 0.096641 0.025514 -0.039271 0.000000
0.954000 0.098175 0.002619 -0.049689 0.000000
0.956000 0.098175 -0.014248 -0.013000 0.000000
0.958000 0.098175 -0.012116 -0.013000 0.000000
0.960000 0.098175 -0.011973 0.073888 0.000000
0.962000 0.098175 0.021822 0.096986 0.000000
0.964000 0.098175 0.048232 0.097069 0.000000
0.966000 0.098175 0.063384 0.019698 0.000000
0.968000 0.098175 0.047556 0.019698 0.000000
0.970000 0.098175 0.047434 -0.041640 0.000000
0.972000 0.098175 0.013099 -0.085588 0.000000
0.974000 0.099709 -0.020599 -0.058974 0.000000
0.976000 0.099709 -0.030840 0.055866 0.000000
0.978000 0.099709 0.001433 0.055866 0.000000
0.980000 0.099709 0.001575 0.101754 0.000000
0.982000 0.099709 0.041890 0.134173 0.000000
0.984000 0.099709 0.073587 0.087191 0.000000
0.986000 0.099709 0.075402 0.087191 0.000000
0.988000 0.099709 0.075233 0.016440 0.000000
0.990000 0.099709 0.051091 -0.039735 0.000000
0.992000 0.099709 0.019020 -0.055629 0.000000
0.994000 0.101243 -0.005345 0.003446 0.000000
0.996000 0.101243 0.000908 0.003446 0.000000
0.998000 0.101243 0.000957 0.051378 0.000000
1.000000 0.101243 0.023495 0.095798 0.000000
1.002000 0.101243 0.050451 0.123259 0.000000
1.004000 0.101243 0.075379 0.123259 0.000000
1.006000 0.101243 0.075253 0.060284 0.000000
1.008000 0.101243 0.067583 0.016361 0.000000
1.010000 0.101243 0.048607 0.001177 0.000000
1.012000 0.101243 0.032223 0.007275 0.000000
1.014000 0.102777 0.024633 0.007275 0.000000
1.016000 0.102777 0.024557 0.018785 0.000000
1.018000 0.102777 0.023938 0.038451 0.000000
1.020000 0.102777 0.031139 0.054810 0.000000
1.022000 0.102777 0.041015 0.038988 0.000000
1.024000 0.102777 0.041276 0.038988 0.000000
1.026000 0.102777 0.041212 0.031162 0.000000
1.028000 0.102777 0.037725 0.048055 0.000000
1.030000 0.102777 0.041819 0.085063 0.000000
1.032000 0.102777 0.054067 0.085063 0.000000
1.034000 0.102777 0.053948 0.089396 0.000000
1.036000 0.102777 0.065397 0.076226 0.000000
1.038000 0.102777 0.068385 0.032781 0.000000
1.040000 0.102777 0.056722 -0.045214 0.000000
1.042000 0.102777 0.025951 -0.045214 0.000000
1.044000 0.102777 0.025830 -0.042270 0.000000
1.046000 0.104311 0.002966 -0.016033 0.000000
1.048000 0.104311 -0.000651 0.099775 0.000000
1.050000 0.104311 0.034089 0.099775 0.000000
1.052000 0.104311 0.034094 0.150880 0.000000
1.054000 0.104311 0.076756 0.162862 0.000000
1.056000 0.104311 0.103975 0.114643 0.000000
1.058000 0.104311 0.105850 -0.057752 0.000000
1.060000 0.104311 0.051323 -0.057752 0.000000
1.062000 0.104311 0.051046 -0.114245 0.000000
1.064000 0.104311 -0.011607 -0.113154 0.000000
1.066000 0.104311 -0.043478 0.031418 0.000000
1.068000 0.104311 -0.010926 0.031418 0.000000
1.070000 0.104311 -0.010789 0.128158 0.000000
1.072000 0.104311 0.045862 0.183043 0.000000
1.074000 0.104311 0.091995 0.203248 0.000000
1.076000 0.104311 0.126837 0.059991 0.000000
1.078000 0.104311 0.100132 0.059991 0.000000
1.080000 0.104311 0.099761 -0.042422 0.000000
1.082000 0.104311 0.040810 -0.109704 0.000000
1.084000 0.104311 -0.012149 -0.123654 0.000000
1.086000 0.104311 -0.047078 0.027474 0.000000
1.088000 0.104311 -0.015247 0.027474 0.000000
1.090000 0.104311 -0.015133 0.108147 0.000000
1.092000 0.105845 0.036267 0.164102 0.000000
1.094000 0.105845 0.080495 0.140551 0.000000
1.096000 0.105845 0.097101 0.140551 0.000000
1.098000 0.105845 0.096865 0.070416 0.000000
1.100000 0.104311 0.081962 -0.006806 0.000000
1.102000 0.104311 0.047305 -0.052920 0.000000
1.104000 0.104311 0.011917 -0.031706 0.000000
1.106000 0.104311 0.001299 -0.031706 0.000000
1.108000 0.104311 0.001224 0.011343 0.000000
1.110000 0.104311 0.008874 0.044766 0.000000
1.112000 0.104311 0.023525 0.081202 0.000000
1.114000 0.105845 0.045182 0.081202 0.000000
1.116000 0.105845 0.045119 0.083035 0.000000
1.118000 0.105845 0.060280 0.046081 0.000000
1.120000 0.105845 0.053363 0.045561 0.000000
1.122000 0.105845 0.048596 0.054089 0.000000
1.124000 0.105845 0.047494 0.054089 0.000000
1.126000 0.105845 0.047303 0.047629 0.000000
1.128000 0.105845 0.046327 0.027705 0.000000
1.130000 0.104311 0.040288 -0.009260 0.000000
1.132000 0.104311 0.027386 -0.009260 0.000000
1.134000 0.104311 0.027261 -0.024134 0.000000
1.136000 0.104311 0.009825 -0.019352 0.000000
1.138000 0.104311 0.001618 0.031737 0.000000
1.140000 0.105845 0.013381 0.130621 0.000000
1.142000 0.105845 0.049938 0.130621 0.000000
1.144000 0.105845 0.049860 0.155070 0.000000
1.146000 0.105845 0.086329 0.148489 0.000000
1.148000 0.105845 0.105199 0.075639 0.000000
1.150000 0.104311 0.093696 -0.075817 0.000000
1.152000 0.104311 0.037265 -0.075817 0.000000
1.154000 0.104311 0.036983 -0.116064 0.000000
1.156000 0.104311 -0.021093 -0.095492 0.000000
1.158000 0.104311 -0.042475 0.071622 0.000000
1.160000 0.104311 0.003365 0.071622 0.000000
1.162000 0.104311 0.003454 0.150381 0.000000
1.164000 0.104311 0.061162 0.200836 0.000000
1.166000 0.104311 0.106327 0.198372 0.000000
1.168000 0.104311 0.133406 0.031066 0.000000
1.170000 0.104311 0.095046 0.031066 0.000000
1.172000 0.104311 0.094612 -0.068083 0.000000
1.174000 0.104311 0.028611 -0.122145 0.000000
1.176000 0.104311 -0.023305 -0.046758 0.000000
1.178000 0.104311 -0.022992 -0.046758 0.000000
1.180000 0.104311 -0.022961 0.051605 0.000000
1.182000 0.104311 0.011532 0.125389 0.000000
1.184000 0.104311 0.053109 0.188187 0.000000
1.186000 0.104311 0.098022 0.162946 0.000000
1.188000 0.104311 0.114347 0.162946 0.000000
1.190000 0.104311 0.114003 0.077341 0.000000
1.192000 0.104311 0.094250 -0.007481 0.000000
1.194000 0.102777 0.054882 -0.054766 0.000000
1.196000 0.102777 0.018071 -0.054766 0.000000
1.198000 0.102777 0.017840 -0.031106 0.000000
1.200000 0.102777 0.001178 0.002173 0.000000
1.202000 0.102777 0.004737 0.044841 0.000000
1.204000 0.102777 0.021368 0.129003 0.000000
1.206000 0.102777 0.058126 0.129003 0.000000
1.208000 0.102777 0.058022 0.113352 0.000000
1.210000 0.102777 0.078256 0.080589 0.000000
1.212000 0.102777 0.076024 0.058093 0.000000
1.214000 0.102777 0.063358 0.030016 0.000000
1.216000 0.102777 0.049845 0.030016 0.000000
1.218000 0.102777 0.049555 -0.002721 0.000000
1.220000 0.102777 0.028956 -0.019272 0.000000
1.222000 0.101243 0.013873 -0.020249 0.000000
1.224000 0.101243 0.006784 -0.020249 0.000000
1.226000 0.101243 0.006716 -0.000530 0.000000
1.228000 0.101243 0.008489 0.031038 0.000000
1.230000 0.102777 0.018476 0.076722 0.000000
1.232000 0.102777 0.038024 0.133777 0.000000
1.234000 0.102777 0.064231 0.133777 0.000000
1.236000 0.102777 0.064047 0.132372 0.000000
1.238000 0.101243 0.084789 0.085790 0.000000
1.240000 0.101243 0.082042 -0.057605 0.000000
1.242000 0.101243 0.034564 -0.057605 0.000000
1.244000 0.101243 0.034274 -0.105722 0.000000
1.246000 0.101243 -0.018185 -0.105689 0.000000
1.248000 0.101243 -0.045112 -0.057602 0.000000
1.250000 0.101243 -0.044374 0.108009 0.000000
1.252000 0.101243 0.009548 0.108009 0.000000
1.254000 0.101243 0.009628 0.159873 0.000000
1.256000 0.101243 0.065029 0.196419 0.000000
1.258000 0.101243 0.106475 0.089179 0.000000
1.260000 0.101243 0.092767 0.089179 0.000000
1.262000 0.099709 0.092376 -0.024585 0.000000
1.264000 0.099709 0.042778 -0.120249 0.000000
1.266000 0.099709 -0.014279 -0.150051 0.000000
1.268000 0.099709 -0.056854 -0.039057 0.000000
1.270000 0.099709 -0.042667 -0.039057 0.000000
1.272000 0.099709 -0.042547 0.054381 0.000000
1.274000 0.099709 -0.000645 0.133004 0.000000
1.276000 0.099709 0.046895 0.207836 0.000000
1.278000 0.099709 0.095200 0.150475 0.000000
1.280000 0.099709 0.107715 0.150475 0.000000
1.282000 0.098175 0.107344 0.049337 0.000000
1.284000 0.098175 0.078541 -0.049342 0.000000
1.286000 0.098175 0.031736 -0.100524 0.000000
1.288000 0.098175 -0.009716 -0.100524 0.000000
1.290000 0.098175 -0.009894 -0.069347 0.000000
1.292000 0.098175 -0.030213 -0.004963 0.000000
1.294000 0.098175 -0.017502 0.145209 0.000000
1.296000 0.098175 0.041972 0.184799 0.000000
1.298000 0.098175 0.087761 0.184799 0.000000
1.300000 0.098175 0.087575 0.163096 0.000000
1.302000 0.096641 0.111809 0.098897 0.000000
1.304000 0.096641 0.102999 -0.001283 0.000000
1.306000 0.096641 0.063103 -0.001283 0.000000
1.308000 0.096641 0.062691 -0.050847 0.000000
1.310000 0.096641 0.015419 -0.066733 0.000000
1.312000 0.095107 -0.013119 0.000787 0.000000
1.314000 0.095107 -0.001986 0.051343 0.000000
1.316000 0.095107 0.019810 0.051343 0.000000
1.318000 0.095107 0.019766 0.079654 0.000000
1.320000 0.095107 0.044594 0.103858 0.000000
1.322000 0.095107 0.064921 0.110214 0.000000
1.324000 0.095107 0.075184 0.110214 0.000000
1.326000 0.095107 0.074916 0.084642 0.000000
1.328000 0.095107 0.072499 0.050838 0.000000
1.330000 0.095107 0.060570 0.004090 0.000000
1.332000 0.095107 0.038505 -0.047846 0.000000
1.334000 0.093573 0.012953 -0.047846 0.000000
1.336000 0.093573 0.012748 -0.043467 0.000000
1.338000 0.093573 -0.005978 -0.027975 0.000000
1.340000 0.093573 -0.010187 0.071411 0.000000
1.342000 0.093573 0.023022 0.119321 0.000000
1.344000 0.093573 0.054242 0.119321 0.000000
1.346000 0.093573 0.054118 0.132544 0.000000
1.348000 0.093573 0.079124 0.130894 0.000000
1.350000 0.093573 0.091661 0.045346 0.000000
1.352000 0.093573 0.069235 0.045346 0.000000
1.354000 0.092039 0.068840 -0.060483 0.000000
1.356000 0.092039 0.015562 -0.120955 0.000000
1.358000 0.092039 -0.030611 -0.077189 0.000000
1.360000 0.092039 -0.036291 -0.018241 0.000000
1.362000 0.092039 -0.024614 -0.018241 0.000000
1.364000 0.092039 -0.024527 0.069679 0.000000
1.366000 0.092039 0.015460 0.141614 0.000000
1.368000 0.092039 0.058215 0.202022 0.000000
1.370000 0.092039 0.096568 0.202022 0.000000
1.372000 0.092039 0.096277 0.143624 0.000000
1.374000 0.090505 0.106709 0.009459 0.000000
1.376000 0.090505 0.068295 -0.152444 0.000000
1.378000 0.088971 -0.003866 -0.148440 0.000000
1.380000 0.088971 -0.047678 -0.148440 0.000000
1.382000 0.088971 -0.047730 -0.088400 0.000000
1.384000 0.088971 -0.057409 -0.002762 0.000000
1.386000 0.088971 -0.033620 0.197805 0.000000
1.388000 0.088971 0.045503 0.197805 0.000000
1.390000 0.088971 0.045504 0.241162 0.000000
1.392000 0.088971 0.115797 0.211887 0.000000
1.394000 0.088971 0.142187 -0.021106 0.000000
1.396000 0.088971 0.078012 -0.115473 0.000000
1.398000 0.087437 0.012474 -0.115473 0.000000
1.400000 0.087437 0.012121 -0.167799 0.000000
1.402000 0.087437 -0.056700 -0.143251 0.000000
1.404000 0.087437 -0.082960 0.046217 0.000000
1.406000 0.087437 -0.029544 0.138504 0.000000
1.408000 0.087437 0.028033 0.138504 0.000000
1.410000 0.087437 0.028065 0.210141 0.000000
1.412000 0.087437 0.096069 0.213158 0.000000
1.414000 0.087437 0.132166 0.067086 0.000000
1.416000 0.085903 0.100453 0.067086 0.000000
1.418000 0.085903 0.099975 -0.064203 0.000000
1.420000 0.085903 0.029395 -0.132369 0.000000
1.422000 0.085903 -0.028056 -0.101167 0.000000
1.424000 0.085903 -0.047514 -0.016758 0.000000
1.426000 0.085903 -0.032845 -0.016758 0.000000
1.428000 0.085903 -0.032791 0.062309 0.000000
1.430000 0.085903 0.008796 0.129387 0.000000
1.432000 0.085903 0.052546 0.161068 0.000000
1.434000 0.084369 0.083688 0.161068 0.000000
1.436000 0.084369 0.083475 0.094855 0.000000
1.438000 0.084369 0.081345 0.016953 0.000000
1.440000 0.084369 0.053903 -0.100677 0.000000
1.442000 0.084369 -0.001327 -0.089742 0.000000
1.444000 0.084369 -0.030388 -0.089742 0.000000
1.446000 0.082835 -0.030514 -0.046609 0.000000
1.448000 0.082835 -0.035269 -0.005111 0.000000
1.450000 0.082835 -0.022233 0.095958 0.000000
1.452000 0.082835 0.023381 0.095958 0.000000
1.454000 0.082835 0.023379 0.098637 0.000000
1.456000 0.082835 0.052868 0.079400 0.000000
1.458000 0.082835 0.059715 0.022602 0.000000
1.460000 0.082835 0.041424 0.003583 0.000000
1.462000 0.081301 0.025046 0.003583 0.000000
1.464000 0.081301 0.024786 -0.026921 0.000000
1.466000 0.081301 0.000508 -0.038585 0.000000
1.468000 0.081301 -0.014202 0.001624 0.000000
1.470000 0.079767 -0.004042 0.006001 0.000000
1.472000 0.079767 0.002332 0.006001 0.000000
1.474000 0.079767 0.002294 0.026972 0.000000
1.476000 0.079767 0.015356 0.060980 0.000000
1.478000 0.079767 0.032878 0.082322 0.000000
1.480000 0.079767 0.047625 0.082322 0.000000
1.482000 0.079767 0.047438 0.085541 0.000000
1.484000 0.079767 0.057370 0.057361 0.000000
1.486000 0.079767 0.052617 0.017650 0.000000
1.488000 0.078233 0.037061 -0.020236 0.000000
1.490000 0.078233 0.017465 -0.020236 0.000000
1.492000 0.076699 0.017241 -0.033773 0.000000
1.494000 0.076699 -0.000968 -0.026562 0.000000
1.496000 0.076699 -0.006621 0.034323 0.000000
1.498000 0.076699 0.014009 0.034323 0.000000
1.500000 0.076699 0.013964 0.083956 0.000000
1.502000 0.076699 0.041830 0.106617 0.000000
1.504000 0.076699 0.060909 0.115176 0.000000
1.506000 0.076699 0.070007 0.063568 0.000000
1.508000 0.076699 0.063218 0.063568 0.000000
1.510000 0.076699 0.062865 -0.005654 0.000000
1.512000 0.075165 0.032826 -0.061541 0.000000
1.514000 0.075165 -0.000643 -0.049428 0.000000
1.516000 0.075165 -0.009619 -0.049428 0.000000
1.518000 0.075165 -0.009702 -0.016314 0.000000
1.520000 0.075165 -0.007177 0.023377 0.000000
1.522000 0.075165 0.004974 0.128197 0.000000
1.524000 0.075165 0.042647 0.135665 0.000000
1.526000 0.075165 0.069314 0.135665 0.000000
1.528000 0.075165 0.069076 0.100806 0.000000
1.530000 0.073631 0.075422 0.033507 0.000000
1.532000 0.073631 0.056522 -0.074090 0.000000
1.534000 0.072097 0.012318 -0.061940 0.000000
1.536000 0.072097 -0.009016 -0.061940 0.000000
1.538000 0.072097 -0.009157 -0.054471 0.000000
1.540000 0.072097 -0.023265 0.040572 0.000000
1.542000 0.072097 0.003243 0.096422 0.000000
1.544000 0.072097 0.033853 0.096422 0.000000
1.546000 0.072097 0.033772 0.116675 0.000000
1.548000 0.072097 0.062392 0.105223 0.000000
1.550000 0.072097 0.073579 0.004449 0.000000
1.552000 0.072097 0.044236 -0.034678 0.000000
1.554000 0.070563 0.016748 -0.034678 0.000000
1.556000 0.070563 0.016502 -0.051336 0.000000
1.558000 0.070563 -0.009356 -0.044317 0.000000
1.560000 0.070563 -0.018039 0.006892 0.000000
1.562000 0.070563 -0.007925 0.006892 0.000000
1.564000 0.070563 -0.007947 0.047944 0.000000
1.566000 0.070563 0.014254 0.064479 0.000000
1.568000 0.070563 0.031080 0.072698 0.000000
1.570000 0.070563 0.042254 0.038222 0.000000
1.572000 0.069029 0.038197 0.038222 0.000000
1.574000 0.069029 0.037988 0.008038 0.000000
1.576000 0.069029 0.023101 -0.014895 0.000000
1.578000 0.069029 0.008717 -0.032920 0.000000
1.580000 0.069029 -0.004544 -0.032920 0.000000
1.582000 0.069029 -0.004669 -0.007286 0.000000
1.584000 0.069029 -0.005662 0.001813 0.000000
1.586000 0.067495 -0.003001 0.022425 0.000000
1.588000 0.067495 0.007828 0.039073 0.000000
1.590000 0.067495 0.018310 0.039073 0.000000
1.592000 0.067495 0.018236 0.031977 0.000000
1.594000 0.067495 0.021933 0.031366 0.000000
1.596000 0.067495 0.023931 0.024776 0.000000
1.598000 0.067495 0.021744 0.017437 0.000000
1.600000 0.067495 0.018271 0.017437 0.000000
1.602000 0.065961 0.018093 0.002022 0.000000
1.604000 0.065961 0.008616 -0.032312 0.000000
1.606000 0.065961 -0.005989 -0.037071 0.000000
1.608000 0.065961 -0.014704 -0.037071 0.000000
1.610000 0.064427 -0.014732 -0.027922 0.000000
1.612000 0.064427 -0.017768 -0.008133 0.000000
1.614000 0.064427 -0.013149 0.057069 0.000000
1.616000 0.064427 0.010840 0.073288 0.000000
1.618000 0.064427 0.028684 0.073288 0.000000
1.620000 0.064427 0.028558 0.073996 0.000000
1.622000 0.064427 0.041216 0.009252 0.000000
1.624000 0.064427 0.024896 -0.044764 0.000000
1.626000 0.062893 0.000408 -0.044764 0.000000
1.628000 0.062893 0.000255 -0.081592 0.000000
1.630000 0.062893 -0.031386 -0.089898 0.000000
1.632000 0.061359 -0.050466 0.005856 0.000000
1.634000 0.062893 -0.023532 0.064676 0.000000
1.636000 0.062893 0.007655 0.064676 0.000000
1.638000 0.062893 0.007662 0.096201 0.000000
1.640000 0.062893 0.039076 0.107348 0.000000
1.642000 0.062893 0.055813 0.059103 0.000000
1.644000 0.061359 0.051745 0.059103 0.000000
1.646000 0.061359 0.051476 -0.027462 0.000000
1.648000 0.059825 0.016169 -0.101748 0.000000
1.650000 0.059825 -0.026471 -0.082594 0.000000
1.652000 0.059825 -0.038025 -0.019480 0.000000
1.654000 0.059825 -0.026501 -0.019480 0.000000
1.656000 0.059825 -0.026449 0.035130 0.000000
1.658000 0.061359 0.001211 0.087336 0.000000
1.660000 0.061359 0.030248 0.141718 0.000000
1.662000 0.061359 0.061308 0.092614 0.000000
1.664000 0.059825 0.065833 0.092614 0.000000
1.666000 0.059825 0.065560 -0.004327 0.000000
1.668000 0.059825 0.032343 -0.107422 0.000000
1.670000 0.058291 -0.016833 -0.091538 0.000000
1.672000 0.058291 -0.038320 -0.091538 0.000000
1.674000 0.058291 -0.038352 -0.059157 0.000000
1.676000 0.058291 -0.041483 -0.002150 0.000000
1.678000 0.058291 -0.024549 0.100721 0.000000
1.680000 0.058291 0.017968 0.120429 0.000000
1.682000 0.058291 0.048377 0.120429 0.000000
1.684000 0.058291 0.048264 0.100171 0.000000
1.686000 0.058291 0.061732 -0.065247 0.000000
1.688000 0.058291 0.010825 -0.072366 0.000000
1.690000 0.056757 -0.017160 -0.072366 0.000000
1.692000 0.056757 -0.017276 -0.085454 0.000000
1.694000 0.056757 -0.042334 -0.080433 0.000000
1.696000 0.056757 -0.053343 0.009655 0.000000
1.698000 0.056757 -0.027681 0.055461 0.000000
1.700000 0.056757 -0.000093 0.055461 0.000000
1.702000 0.056757 -0.000058 0.072531 0.000000
1.704000 0.056757 0.025412 0.019095 0.000000
1.706000 0.056757 0.016806 -0.039862 0.000000
1.708000 0.055223 -0.004852 -0.039862 0.000000
1.710000 0.055223 -0.004927 -0.031624 0.000000
1.712000 0.055223 -0.015808 -0.046995 0.000000
1.714000 0.055223 -0.026906 -0.043642 0.000000
1.716000 0.055223 -0.029894 0.005505 0.000000
1.718000 0.055223 -0.016429 0.005505 0.000000
1.720000 0.055223 -0.016413 0.022845 0.000000
1.722000 0.055223 -0.002202 0.031299 0.000000
1.724000 0.055223 0.005656 0.017596 0.000000
1.726000 0.055223 0.008380 0.017596 0.000000
1.728000 0.053689 0.008344 -0.011584 0.000000
1.730000 0.053689 -0.000207 -0.015797 0.000000
1.732000 0.053689 -0.005661 -0.015206 0.000000
1.734000 0.053689 -0.008928 -0.011307 0.000000
1.736000 0.053689 -0.009736 -0.011307 0.000000
1.738000 0.053689 -0.009784 0.008905 0.000000
1.740000 0.053689 -0.001650 0.007303 0.000000
1.742000 0.053689 -0.003455 0.007496 0.000000
1.744000 0.053689 -0.001482 -0.006301 0.000000
1.746000 0.052155 -0.002418 -0.006301 0.000000
1.748000 0.052155 -0.002427 -0.033887 0.000000
1.750000 0.052155 -0.013043 -0.008508 0.000000
1.752000 0.052155 -0.009446 0.010824 0.000000
1.754000 0.052155 -0.002760 0.010824 0.000000
1.756000 0.052155 -0.002781 0.021944 0.000000
1.758000 0.052155 0.006133 0.035291 0.000000
1.760000 0.052155 0.015235 0.006741 0.000000
1.762000 0.052155 0.006399 0.004145 0.000000
1.764000 0.052155 0.003710 0.004145 0.000000
1.766000 0.050621 0.003631 -0.020595 0.000000
1.768000 0.050621 -0.005213 -0.038480 0.000000
1.770000 0.050621 -0.011602 -0.007707 0.000000
1.772000 0.050621 -0.007950 -0.007707 0.000000
1.774000 0.050621 -0.007927 0.013302 0.000000
1.776000 0.050621 0.001499 0.027193 0.000000
1.778000 0.050621 0.009273 0.058357 0.000000
1.780000 0.050621 0.021112 0.034641 0.000000
1.782000 0.050621 0.021388 0.034641 0.000000
1.784000 0.050621 0.021246 0.013534 0.000000
1.786000 0.050621 0.014960 -0.066468 0.000000
1.788000 0.049087 -0.011356 -0.064925 0.000000
1.790000 0.049087 -0.026628 -0.064925 0.000000
1.792000 0.049087 -0.026587 -0.038397 0.000000
1.794000 0.049087 -0.027311 -0.017731 0.000000
1.796000 0.049087 -0.021918 0.052639 0.000000
1.798000 0.049087 0.001646 0.084417 0.000000
1.800000 0.049087 0.026025 0.084417 0.000000
1.802000 0.049087 0.025949 0.078872 0.000000
1.804000 0.049087 0.041285 -0.006228 0.000000
1.806000 0.049087 0.021747 -0.056528 0.000000
1.808000 0.047553 -0.005157 -0.075869 0.000000
1.810000 0.047553 -0.027833 -0.075869 0.000000
1.812000 0.047553 -0.027821 -0.062477 0.000000
1.814000 0.047553 -0.037654 -0.022429 0.000000
1.816000 0.047553 -0.027546 0.039918 0.000000
1.818000 0.049087 -0.004794 0.039918 0.000000
1.820000 0.049087 -0.004759 0.100475 0.000000
1.822000 0.049087 0.034037 0.081961 0.000000
1.824000 0.047553 0.045934 0.040142 0.000000
1.826000 0.047553 0.040917 -0.022223 0.000000
1.828000 0.047553 0.016583 -0.022223 0.000000
1.830000 0.046019 0.016446 -0.076294 0.000000
1.832000 0.046019 -0.021222 -0.092578 0.000000
1.834000 0.046019 -0.038654 -0.061634 0.000000
1.836000 0.047553 -0.043521 -0.061634 0.000000
1.838000 0.047553 -0.043436 0.003705 0.000000
1.840000 0.047553 -0.023910 0.066858 0.000000
1.842000 0.047553 0.007388 0.111877 0.000000
1.844000 0.047553 0.040195 0.076897 0.000000
1.846000 0.047553 0.048709 0.076897 0.000000
1.848000 0.046019 0.048582 -0.005787 0.000000
1.850000 0.046019 0.021380 -0.111115 0.000000
1.852000 0.046019 -0.023538 -0.114670 0.000000
1.854000 0.046019 -0.050820 -0.114670 0.000000
1.856000 0.046019 -0.050788 -0.095930 0.000000
1.858000 0.046019 -0.066530 -0.036300 0.000000
1.860000 0.046019 -0.055410 0.094016 0.000000
1.862000 0.046019 -0.003487 0.108312 0.000000
1.864000 0.046019 0.033396 0.108312 0.000000
1.866000 0.046019 0.033413 0.080240 0.000000
1.868000 0.046019 0.047826 -0.071395 0.000000
1.870000 0.046019 -0.000759 -0.111469 0.000000
1.872000 0.046019 -0.037138 -0.119309 0.000000
1.874000 0.046019 -0.062451 -0.119309 0.000000
1.876000 0.046019 -0.062370 -0.089997 0.000000
1.878000 0.046019 -0.071737 0.023170 0.000000
1.880000 0.046019 -0.036469 0.088683 0.000000
1.882000 0.046019 0.007323 0.088683 0.000000
1.884000 0.046019 0.007421 0.101210 0.000000
1.886000 0.046019 0.043848 -0.012833 0.000000
1.888000 0.044485 0.017005 -0.079862 0.000000
1.890000 0.044485 -0.017778 -0.106645 0.000000
1.892000 0.044485 -0.045718 -0.106645 0.000000
1.894000 0.044485 -0.045670 -0.097379 0.000000
1.896000 0.044485 -0.064439 -0.019203 0.000000
1.898000 0.044485 -0.047856 0.044824 0.000000
1.900000 0.044485 -0.015796 0.044824 0.000000
1.902000 0.044485 -0.015681 0.098040 0.000000
1.904000 0.044485 0.029362 0.016847 0.000000
1.906000 0.044485 0.022159 -0.053772 0.000000
1.908000 0.044485 -0.005573 -0.085893 0.000000
1.910000 0.044485 -0.032193 -0.085893 0.000000
1.912000 0.044485 -0.032142 -0.085012 0.000000
1.914000 0.044485 -0.051092 -0.020840 0.000000
1.916000 0.044485 -0.037803 0.039309 0.000000
1.918000 0.044485 -0.012329 0.039309 0.000000
1.920000 0.044485 -0.012244 0.086801 0.000000
1.922000 0.044485 0.024949 0.060999 0.000000
1.924000 0.044485 0.033806 -0.017985 0.000000
1.926000 0.044485 0.014680 -0.093591 0.000000
1.928000 0.044485 -0.022349 -0.093591 0.000000
1.930000 0.042951 -0.022344 -0.118087 0.000000
1.932000 0.042951 -0.058053 -0.047813 0.000000
1.934000 0.044485 -0.047352 0.018164 0.000000
1.936000 0.044485 -0.023605 0.091454 0.000000
1.938000 0.044485 0.011533 0.091454 0.000000
1.940000 0.044485 0.011578 0.118859 0.000000
1.942000 0.044485 0.049054 0.057545 0.000000
1.944000 0.044485 0.048096 -0.049628 0.000000
1.946000 0.044485 0.013539 -0.049628 0.000000
1.948000 0.042951 0.013418 -0.143492 0.000000
1.950000 0.042951 -0.048914 -0.099530 0.000000
1.952000 0.042951 -0.057761 -0.033209 0.000000
1.954000 0.042951 -0.044411 0.035570 0.000000
1.956000 0.044485 -0.017010 0.035570 0.000000
1.958000 0.044485 -0.016867 0.105518 0.000000
1.960000 0.044485 0.026908 0.133632 0.000000
1.962000 0.044485 0.058301 0.048059 0.000000
1.964000 0.044485 0.052267 0.048059 0.000000
1.966000 0.042951 0.052080 -0.067560 0.000000
1.968000 0.042951 0.002531 -0.154761 0.000000
1.970000 0.042951 -0.049735 -0.105534 0.000000
1.972000 0.042951 -0.062329 -0.033879 0.000000
1.974000 0.042951 -0.047780 -0.033879 0.000000
1.976000 0.042951 -0.047571 0.028083 0.000000
1.978000 0.044485 -0.016339 0.152551 0.000000
1.980000 0.044485 0.036398 0.153247 0.000000
1.982000 0.044485 0.072890 0.153247 0.000000
1.984000 0.044485 0.072742 0.056699 0.000000
1.986000 0.042951 0.062829 -0.140157 0.000000
1.988000 0.042951 -0.011963 -0.132330 0.000000
1.990000 0.042951 -0.050056 -0.102251 0.000000
1.992000 0.042951 -0.061928 -0.102251 0.000000
1.994000 0.042951 -0.061750 -0.051459 0.000000
1.996000 0.042951 -0.051887 0.090466 0.000000
1.998000 0.044485 -0.004323 0.151327 0.000000
2.000000 0.044485 0.045765 0.142207 0.000000
2.002000 0.044485 0.076207 0.142207 0.000000
2.004000 0.044485 0.076046 -0.042317 0.000000
2.006000 0.042951 0.024644 -0.101707 0.000000
2.008000 0.042951 -0.021943 -0.109972 0.000000
2.010000 0.042951 -0.050027 -0.109972 0.000000
2.012000 0.042951 -0.049926 -0.087677 0.000000
2.014000 0.042951 -0.059695 -0.006164 0.000000
2.016000 0.044485 -0.037959 0.073258 0.000000
2.018000 0.044485 -0.002723 0.127472 0.000000
2.020000 0.044485 0.039533 0.127472 0.000000
2.022000 0.044485 0.039517 0.121280 0.000000
2.024000 0.044485 0.070737 -0.032253 0.000000
2.026000 0.042951 0.031734 -0.082585 0.000000
2.028000 0.042951 -0.008587 -0.082585 0.000000
2.030000 0.042951 -0.008612 -0.091106 0.000000
2.032000 0.042951 -0.039813 -0.060897 0.000000
2.034000 0.044485 -0.043205 0.003873 0.000000
2.036000 0.044485 -0.027448 0.061209 0.000000
2.038000 0.044485 0.000218 0.061209 0.000000
2.040000 0.044485 0.000281 0.091068 0.000000
2.042000 0.044485 0.035530 0.022431 0.000000
2.044000 0.044485 0.030644 -0.042318 0.000000
2.046000 0.044485 0.004952 -0.042318 0.000000
2.048000 0.044485 0.004954 -0.089405 0.000000
2.050000 0.044485 -0.033092 -0.087306 0.000000
2.052000 0.044485 -0.049289 -0.039057 0.000000
2.054000 0.044485 -0.045006 0.012080 0.000000
2.056000 0.044485 -0.027420 0.012080 0.000000
2.058000 0.044485 -0.027301 0.077342 0.000000
2.060000 0.044485 0.013052 0.052037 0.000000
2.062000 0.044485 0.027080 -0.013770 0.000000
2.064000 0.044485 0.013403 -0.066209 0.000000
2.066000 0.044485 -0.013646 -0.066209 0.000000
2.068000 0.044485 -0.013584 -0.099613 0.000000
2.070000 0.044485 -0.044875 -0.063223 0.000000
2.072000 0.044485 -0.049051 0.009150 0.000000
2.074000 0.044485 -0.028585 0.009150 0.000000
2.076000 0.044485 -0.028449 0.081369 0.000000
2.078000 0.044485 0.013383 0.084409 0.000000
2.080000 0.044485 0.036307 0.038215 0.000000
2.082000 0.044485 0.037039 -0.022709 0.000000
2.084000 0.044485 0.016411 -0.022709 0.000000
2.086000 0.044485 0.016368 -0.119489 0.000000
2.088000 0.044485 -0.037135 -0.078993 0.000000
2.090000 0.044485 -0.048242 -0.019104 0.000000
2.092000 0.044485 -0.034748 -0.019104 0.000000
2.094000 0.044485 -0.034596 0.067629 0.000000
2.096000 0.046019 0.007169 0.136122 0.000000
2.098000 0.046019 0.047542 0.097989 0.000000
2.100000 0.046019 0.063740 0.033519 0.000000
2.102000 0.044485 0.052352 0.033519 0.000000
2.104000 0.044485 0.052196 -0.113114 0.000000
2.106000 0.044485 -0.016918 -0.107392 0.000000
2.108000 0.044485 -0.046295 -0.067710 0.000000
2.110000 0.044485 -0.048480 -0.067710 0.000000
2.112000 0.046019 -0.048316 0.017940 0.000000
2.114000 0.046019 -0.017194 0.131349 0.000000
2.116000 0.046019 0.032624 0.135463 0.000000
2.118000 0.046019 0.065315 0.080086 0.000000
2.120000 0.046019 0.069284 0.080086 0.000000
2.122000 0.046019 0.069122 -0.002123 0.000000
2.124000 0.046019 0.037225 -0.110778 0.000000
2.126000 0.046019 -0.017435 -0.112712 0.000000
2.128000 0.046019 -0.046685 -0.037160 0.000000
2.130000 0.046019 -0.038148 -0.037160 0.000000
2.132000 0.046019 -0.038000 0.076935 0.000000
2.134000 0.046019 0.010283 0.100170 0.000000
2.136000 0.046019 0.040176 0.083338 0.000000
2.138000 0.046019 0.054500 0.083338 0.000000
2.140000 0.046019 0.054422 0.035087 0.000000
2.142000 0.046019 0.044772 -0.086042 0.000000
2.144000 0.046019 -0.006856 -0.107263 0.000000
2.146000 0.046019 -0.040079 -0.071653 0.000000
2.148000 0.046019 -0.046846 -0.071653 0.000000
2.150000 0.046019 -0.046699 0.018026 0.000000
2.152000 0.047553 -0.015262 0.044691 0.000000
2.154000 0.047553 0.005830 0.045622 0.000000
2.156000 0.047553 0.019122 0.045622 0.000000
2.158000 0.047553 0.019160 0.032609 0.000000
2.160000 0.047553 0.024459 -0.039343 0.000000
2.162000 0.047553 -0.003620 -0.062810 0.000000
2.164000 0.047553 -0.024552 -0.049071 0.000000
2.166000 0.047553 -0.030268 -0.049071 0.000000
2.168000 0.047553 -0.030160 -0.002480 0.000000
2.170000 0.047553 -0.014159 0.006440 0.000000
2.172000 0.047553 -0.007157 0.010616 0.000000
2.174000 0.047553 -0.000956 0.010616 0.000000
2.176000 0.047553 -0.000890 0.006174 0.000000
2.178000 0.047553 0.003672 -0.022953 0.000000
2.180000 0.047553 -0.010673 -0.033913 0.000000
2.182000 0.047553 -0.021043 -0.012344 0.000000
2.184000 0.047553 -0.016336 -0.012344 0.000000
2.186000 0.047553 -0.016233 0.016103 0.000000
2.188000 0.047553 0.002503 0.008909 0.000000
2.190000 0.047553 0.003907 -0.009229 0.000000
2.192000 0.047553 -0.001785 -0.011768 0.000000
2.194000 0.047553 -0.003760 -0.011768 0.000000
2.196000 0.049087 -0.003714 -0.018985 0.000000
2.198000 0.049087 -0.013849 -0.009963 0.000000
2.200000 0.049087 -0.015868 0.003839 0.000000
2.202000 0.049087 -0.008123 0.003839 0.000000
2.204000 0.049087 -0.008033 0.024946 0.000000
2.206000 0.049087 0.010968 0.021120 0.000000
2.208000 0.049087 0.015911 -0.007701 0.000000
2.210000 0.049087 0.005566 -0.013725 0.000000
2.212000 0.049087 -0.000726 -0.013725 0.000000
2.214000 0.049087 -0.000705 -0.014322 0.000000
2.216000 0.049087 -0.008163 0.004516 0.000000
2.218000 0.049087 -0.008802 0.016819 0.000000
2.220000 0.049087 -0.000565 0.016819 0.000000
2.222000 0.049087 -0.000515 0.035049 0.000000
2.224000 0.049087 0.019967 -0.000653 0.000000
2.226000 0.049087 0.015919 -0.026948 0.000000
2.228000 0.049087 -0.000169 -0.025058 0.000000
2.230000 0.049087 -0.008847 -0.025058 0.000000
2.232000 0.050621 -0.008787 0.011451 0.000000
2.234000 0.050621 -0.001341 0.032424 0.000000
2.236000 0.050621 0.005432 0.063020 0.000000
2.238000 0.050621 0.024298 0.063020 0.000000
2.240000 0.050621 0.024278 0.057408 0.000000
2.242000 0.050621 0.041910 -0.021141 0.000000
2.244000 0.050621 0.022711 -0.060886 0.000000
2.246000 0.050621 -0.006906 -0.059977 0.000000
2.248000 0.050621 -0.023404 -0.059977 0.000000
2.250000 0.050621 -0.023312 0.005710 0.000000
2.252000 0.050621 -0.011619 0.064185 0.000000
2.254000 0.050621 0.012821 0.115146 0.000000
2.256000 0.050621 0.048621 0.103499 0.000000
2.258000 0.050621 0.069286 0.103499 0.000000
2.260000 0.050621 0.069139 -0.029169 0.000000
2.262000 0.050621 0.029116 -0.082370 0.000000
2.264000 0.050621 -0.011518 -0.088070 0.000000
2.266000 0.050621 -0.034876 -0.088070 0.000000
2.268000 0.050621 -0.034768 -0.015687 0.000000
2.270000 0.052155 -0.023999 0.059668 0.000000
2.272000 0.052155 0.006939 0.128855 0.000000
2.274000 0.052155 0.049587 0.141052 0.000000
2.276000 0.052155 0.080406 0.141052 0.000000
2.278000 0.052155 0.080254 0.005022 0.000000
2.280000 0.052155 0.045191 -0.061104 0.000000
2.282000 0.050621 0.005879 -0.086911 0.000000
2.284000 0.050621 -0.024550 -0.086911 0.000000
2.286000 0.052155 -0.024506 -0.085135 0.000000
2.288000 0.052155 -0.047029 0.033071 0.000000
2.290000 0.052155 -0.012480 0.097652 0.000000
2.292000 0.052155 0.027304 0.128430 0.000000
2.294000 0.052155 0.060608 0.128430 0.000000
2.296000 0.052155 0.060530 0.029603 0.000000
2.298000 0.052155 0.043387 -0.038155 0.000000
2.300000 0.052155 0.013012 -0.066292 0.000000
2.302000 0.052155 -0.015733 -0.066292 0.000000
2.304000 0.052155 -0.015702 -0.077598 0.000000
2.306000 0.052155 -0.041696 0.004855 0.000000
2.308000 0.052155 -0.016651 0.058714 0.000000
2.310000 0.053689 0.011542 0.074088 0.000000
2.312000 0.053689 0.031432 0.074088 0.000000
2.314000 0.053689 0.031422 0.027341 0.000000
2.316000 0.052155 0.028347 -0.013358 0.000000
2.318000 0.052155 0.012302 -0.036100 0.000000
2.320000 0.052155 -0.008281 -0.036100 0.000000
2.322000 0.053689 -0.008237 -0.036823 0.000000
2.324000 0.053689 -0.023064 -0.006923 0.000000
2.326000 0.053689 -0.008393 0.032299 0.000000
2.328000 0.053689 0.006773 0.036931 0.000000
2.330000 0.053689 0.015752 0.036931 0.000000
2.332000 0.053689 0.015754 -0.002531 0.000000
2.334000 0.053689 0.008835 -0.013859 0.000000
2.336000 0.053689 -0.000181 -0.011986 0.000000
2.338000 0.053689 -0.009043 -0.023143 0.000000
2.340000 0.053689 -0.015355 -0.023143 0.000000
2.342000 0.053689 -0.015274 -0.009595 0.000000
2.344000 0.053689 -0.003954 0.017144 0.000000
2.346000 0.053689 0.003895 0.023401 0.000000
2.348000 0.053689 0.009596 0.023401 0.000000
2.350000 0.053689 0.009612 -0.004340 0.000000
2.352000 0.053689 0.002772 -0.008831 0.000000
2.354000 0.053689 -0.003182 0.003515 0.000000
2.356000 0.053689 -0.004457 -0.006195 0.000000
2.358000 0.053689 -0.005541 -0.006195 0.000000
2.360000 0.053689 -0.005488 -0.012179 0.000000
2.362000 0.055223 0.001312 0.015008 0.000000
2.364000 0.055223 0.007413 0.003874 0.000000
2.366000 0.055223 0.004919 0.003874 0.000000
2.368000 0.055223 0.004939 -0.002902 0.000000
2.370000 0.055223 -0.000567 0.012135 0.000000
2.372000 0.055223 0.002187 0.033250 0.000000
2.374000 0.055223 0.009573 0.024035 0.000000
2.376000 0.055223 0.014066 0.024035 0.000000
2.378000 0.055223 0.014048 -0.037529 0.000000
2.380000 0.055223 0.001421 -0.005543 0.000000
2.382000 0.055223 0.001604 -0.016023 0.000000
2.384000 0.055223 -0.006060 -0.016023 0.000000
2.386000 0.055223 -0.006004 -0.000952 0.000000
2.388000 0.055223 -0.004984 0.055091 0.000000
2.390000 0.055223 0.014284 0.084990 0.000000
2.392000 0.055223 0.036191 0.067802 0.000000
2.394000 0.055223 0.046903 0.067802 0.000000
2.396000 0.055223 0.046783 -0.034312 0.000000
2.398000 0.055223 0.018435 -0.031954 0.000000
2.400000 0.055223 0.002499 -0.030541 0.000000
2.402000 0.055223 -0.009406 -0.018937 0.000000
2.404000 0.055223 -0.012750 -0.018937 0.000000
2.406000 0.055223 -0.012661 0.074236 0.000000
2.408000 0.055223 0.022691 0.116729 0.000000
2.410000 0.055223 0.056621 0.083220 0.000000
2.412000 0.055223 0.064107 0.083220 0.000000
2.414000 0.055223 0.063920 -0.023300 0.000000
2.416000 0.055223 0.027933 -0.034826 0.000000
2.418000 0.055223 0.006337 -0.031836 0.000000
2.420000 0.055223 -0.006532 -0.023922 0.000000
2.422000 0.055223 -0.012865 -0.023922 0.000000
2.424000 0.055223 -0.012785 0.063792 0.000000
2.426000 0.055223 0.023773 0.084971 0.000000
2.428000 0.056757 0.046577 0.067520 0.000000
2.430000 0.056757 0.051247 0.067520 0.000000
2.432000 0.056757 0.051103 0.004540 0.000000
2.434000 0.056757 0.030602 -0.007644 0.000000
2.436000 0.056757 0.016963 -0.008839 0.000000
2.438000 0.056757 0.006129 0.006853 0.000000
2.440000 0.056757 0.005727 0.006853 0.000000
2.442000 0.056757 0.005750 0.030226 0.000000
2.444000 0.056757 0.023057 0.036652 0.000000
2.446000 0.056757 0.028039 0.009055 0.000000
2.448000 0.056757 0.018960 0.000126 0.000000
2.450000 0.056757 0.011683 0.000126 0.000000
2.452000 0.056757 0.011610 -0.000247 0.000000
2.454000 0.056757 0.006844 0.011987 0.000000
2.456000 0.056757 0.004850 0.047727 0.000000
2.458000 0.056757 0.018828 0.047727 0.000000
2.460000 0.056757 0.018853 0.005616 0.000000
2.462000 0.056757 0.023997 -0.037509 0.000000
2.464000 0.056757 -0.001779 -0.046008 0.000000
2.466000 0.056757 -0.018445 -0.033832 0.000000
2.468000 0.056757 -0.021705 -0.033832 0.000000
2.470000 0.056757 -0.021656 0.009158 0.000000
2.472000 0.056757 -0.012693 0.067956 0.000000
2.474000 0.056757 0.012321 0.073957 0.000000
2.476000 0.056757 0.034021 0.073957 0.000000
2.478000 0.056757 0.034031 -0.021423 0.000000
2.480000 0.056757 0.022736 -0.070099 0.000000
2.482000 0.056757 -0.016062 -0.090252 0.000000
2.484000 0.056757 -0.042921 -0.041713 0.000000
2.486000 0.056757 -0.040267 -0.041713 0.000000
2.488000 0.056757 -0.040157 0.021847 0.000000
2.490000 0.056757 -0.023821 0.086924 0.000000
2.492000 0.056757 0.014199 0.112881 0.000000
2.494000 0.056757 0.052516 0.112881 0.000000
2.496000 0.056757 0.052501 -0.080405 0.000000
2.498000 0.056757 0.002475 -0.092890 0.000000
2.500000 0.056757 -0.032230 -0.085583 0.000000
2.502000 0.056757 -0.050078 -0.006244 0.000000
2.504000 0.056757 -0.034164 -0.006244 0.000000
2.506000 0.056757 -0.034028 0.064523 0.000000
2.508000 0.056757 -0.004893 0.141177 0.000000
2.510000 0.056757 0.049546 0.123683 0.000000
2.512000 0.056757 0.079982 0.123683 0.000000
2.514000 0.056757 0.079845 -0.108018 0.000000
2.516000 0.056757 0.003177 -0.123032 0.000000
2.518000 0.056757 -0.041466 -0.063791 0.000000
2.520000 0.056757 -0.047136 0.009717 0.000000
2.522000 0.056757 -0.027664 0.009717 0.000000
2.524000 0.056757 -0.027536 0.122567 0.000000
2.526000 0.056757 0.024063 0.157216 0.000000
2.528000 0.056757 0.076671 0.102236 0.000000
2.530000 0.056757 0.088922 -0.045224 0.000000
2.532000 0.056757 0.039386 -0.045224 0.000000
2.534000 0.056757 0.039175 -0.144048 0.000000
2.536000 0.056757 -0.034738 -0.044338 0.000000
2.538000 0.056757 -0.034449 0.026504 0.000000
2.540000 0.056757 -0.014561 0.026504 0.000000
2.542000 0.056757 -0.014470 0.143359 0.000000
2.544000 0.056757 0.049924 0.160994 0.000000
2.546000 0.056757 0.095160 0.059968 0.000000
2.548000 0.056757 0.077862 -0.033816 0.000000
2.550000 0.056757 0.036136 -0.033816 0.000000
2.552000 0.056757 0.035937 -0.093370 0.000000
2.554000 0.056757 -0.015327 -0.033910 0.000000
2.556000 0.056757 -0.022585 0.052167 0.000000
2.558000 0.056757 0.000826 0.052167 0.000000
2.560000 0.056757 0.000847 0.135601 0.000000
2.562000 0.056757 0.068160 0.095108 0.000000
2.564000 0.056757 0.078831 0.029604 0.000000
2.566000 0.056757 0.055326 -0.079945 0.000000
2.568000 0.056757 0.005308 -0.079945 0.000000
2.570000 0.056757 0.005195 -0.050977 0.000000
2.572000 0.056757 -0.017478 0.001000 0.000000
2.574000 0.056757 -0.018260 0.092805 0.000000
2.576000 0.056757 0.020063 0.073736 0.000000
2.578000 0.056757 0.056382 0.073736 0.000000
2.580000 0.056757 0.056267 0.024382 0.000000
2.582000 0.055223 0.041097 -0.018599 0.000000
2.584000 0.055223 0.015257 -0.065882 0.000000
2.586000 0.055223 -0.012474 -0.065882 0.000000
2.588000 0.055223 -0.012473 -0.005071 0.000000
2.590000 0.055223 -0.014648 0.076517 0.000000
2.592000 0.055223 0.008398 0.129784 0.000000
2.594000 0.055223 0.052983 0.032780 0.000000
2.596000 0.055223 0.061768 0.032780 0.000000
2.598000 0.055223 0.061574 -0.022880 0.000000
2.600000 0.055223 0.025277 -0.075669 0.000000
2.602000 0.055223 -0.016455 -0.050103 0.000000
2.604000 0.055223 -0.021437 -0.050103 0.000000
2.606000 0.055223 -0.021381 0.018656 0.000000
2.608000 0.055223 -0.014383 0.085702 0.000000
2.610000 0.055223 0.014852 0.103913 0.000000
2.612000 0.055223 0.052437 0.068210 0.000000
2.614000 0.055223 0.069321 0.068210 0.000000
2.616000 0.055223 0.069111 -0.048549 0.000000
2.618000 0.055223 0.014188 -0.107272 0.000000
2.620000 0.055223 -0.032484 -0.035127 0.000000
2.622000 0.055223 -0.027286 -0.035127 0.000000
2.624000 0.055223 -0.027190 0.035235 0.000000
2.626000 0.055223 -0.014522 0.083885 0.000000
2.628000 0.055223 0.022315 0.095387 0.000000
2.630000 0.055223 0.056758 0.023148 0.000000
2.632000 0.055223 0.048190 0.023148 0.000000
2.634000 0.053689 0.048019 -0.049252 0.000000
2.636000 0.053689 0.001278 -0.067938 0.000000
2.638000 0.053689 -0.023719 -0.026552 0.000000
2.640000 0.053689 -0.022062 -0.026552 0.000000
2.642000 0.053689 -0.021998 0.038396 0.000000
2.644000 0.055223 -0.004603 0.039869 0.000000
2.646000 0.055223 0.016129 0.022369 0.000000
2.648000 0.055223 0.021562 0.008416 0.000000
2.650000 0.053689 0.016419 0.008416 0.000000
2.652000 0.053689 0.016362 -0.078120 0.000000
2.654000 0.053689 -0.030204 -0.051182 0.000000
2.656000 0.053689 -0.036818 -0.035306 0.000000
2.658000 0.053689 -0.036094 0.043834 0.000000
2.660000 0.053689 -0.003134 0.043834 0.000000
2.662000 0.053689 -0.003110 0.025552 0.000000
2.664000 0.053689 0.009212 0.020968 0.000000
2.666000 0.053689 0.013408 0.006223 0.000000
2.668000 0.053689 0.008143 0.006223 0.000000
2.670000 0.052155 0.008116 -0.053189 0.000000
2.672000 0.052155 -0.022641 -0.050420 0.000000
2.674000 0.052155 -0.032114 -0.023577 0.000000
2.676000 0.052155 -0.026577 0.025341 0.000000
2.678000 0.052155 -0.003871 0.025341 0.000000
2.680000 0.052155 -0.003868 0.033537 0.000000
2.682000 0.052155 0.010482 0.037498 0.000000
2.684000 0.052155 0.016902 0.031530 0.000000
2.686000 0.052155 0.017349 0.031530 0.000000
2.688000 0.052155 0.017301 -0.033457 0.000000
2.690000 0.052155 -0.006228 -0.057181 0.000000
2.692000 0.052155 -0.023088 -0.035690 0.000000
2.694000 0.052155 -0.022231 0.002017 0.000000
2.696000 0.052155 -0.011051 0.002017 0.000000
2.698000 0.052155 -0.011037 0.052935 0.000000
2.700000 0.052155 0.011914 0.055342 0.000000
2.702000 0.052155 0.022782 0.044507 0.000000
2.704000 0.050621 0.028800 -0.013441 0.000000
2.706000 0.050621 0.013298 -0.013441 0.000000
2.708000 0.050621 0.013206 -0.036019 0.000000
2.710000 0.050621 -0.004097 -0.030001 0.000000
2.712000 0.050621 -0.010767 0.007328 0.000000
2.714000 0.050621 -0.002886 0.007328 0.000000
2.716000 0.050621 -0.002916 0.057421 0.000000
2.718000 0.050621 0.016443 0.043527 0.000000
2.720000 0.050621 0.024173 0.024544 0.000000
2.722000 0.050621 0.022656 -0.001952 0.000000
2.724000 0.050621 0.018102 -0.001952 0.000000
2.726000 0.050621 0.018001 -0.037224 0.000000
2.728000 0.050621 -0.002492 -0.023560 0.000000
2.730000 0.050621 -0.009354 0.015161 0.000000
2.732000 0.050621 -0.002076 0.015161 0.000000
2.734000 0.050621 -0.002091 0.040574 0.000000
2.736000 0.049087 0.011409 0.021398 0.000000
2.738000 0.049087 0.012654 0.009549 0.000000
2.740000 0.049087 0.010670 -0.019714 0.000000
2.742000 0.049087 0.006568 -0.019714 0.000000
2.744000 0.049087 0.006507 -0.017696 0.000000
2.746000 0.049087 -0.002207 -0.000288 0.000000
2.748000 0.049087 -0.002889 0.032404 0.000000
2.750000 0.049087 0.006892 0.032404 0.000000
2.752000 0.049087 0.006859 0.034049 0.000000
2.754000 0.049087 0.013484 -0.004896 0.000000
2.756000 0.049087 0.006135 -0.026819 0.000000
2.758000 0.049087 -0.001820 -0.015362 0.000000
2.760000 0.047553 -0.002876 -0.015362 0.000000
2.762000 0.047553 -0.002898 -0.010769 0.000000
2.764000 0.047553 -0.007228 0.001709 0.000000
2.766000 0.047553 -0.006588 0.029089 0.000000
2.768000 0.047553 0.003465 0.009487 0.000000
2.770000 0.047553 0.004933 0.009487 0.000000
2.772000 0.047553 0.004881 -0.024622 0.000000
2.774000 0.047553 -0.005334 -0.030856 0.000000
2.776000 0.047553 -0.013147 -0.011628 0.000000
2.778000 0.047553 -0.012248 -0.011628 0.000000
2.780000 0.047553 -0.012223 0.014970 0.000000
2.782000 0.046019 -0.004541 0.017930 0.000000
2.784000 0.046019 0.001174 0.029391 0.000000
2.786000 0.046019 0.009959 -0.009022 0.000000
2.788000 0.046019 0.006816 -0.009022 0.000000
2.790000 0.046019 0.006741 -0.026920 0.000000
2.792000 0.046019 -0.005727 -0.018713 0.000000
2.794000 0.046019 -0.010649 -0.006962 0.000000
2.796000 0.046019 -0.011374 -0.006962 0.000000
2.798000 0.046019 -0.011352 0.017571 0.000000
2.800000 0.046019 -0.004677 0.007250 0.000000
2.802000 0.046019 -0.001951 -0.013929 0.000000
2.804000 0.046019 -0.005208 -0.021805 0.000000
2.806000 0.046019 -0.006977 -0.021805 0.000000
2.808000 0.046019 -0.006996 -0.029960 0.000000
2.810000 0.044485 -0.015998 -0.011179 0.000000
2.812000 0.044485 -0.015118 0.010765 0.000000
2.814000 0.044485 -0.007923 0.010765 0.000000
2.816000 0.044485 -0.007874 0.029194 0.000000
2.818000 0.044485 0.003030 -0.000995 0.000000
2.820000 0.044485 0.000825 -0.016573 0.000000
2.822000 0.044485 -0.003704 -0.019005 0.000000
2.824000 0.044485 -0.007068 -0.019005 0.000000
2.826000 0.044485 -0.007085 -0.021706 0.000000
2.828000 0.044485 -0.014129 -0.011859 0.000000
2.830000 0.044485 -0.015040 0.013874 0.000000
2.832000 0.044485 -0.006403 0.005779 0.000000
2.834000 0.044485 -0.003163 0.005779 0.000000
2.836000 0.044485 -0.003184 -0.008314 0.000000
2.838000 0.044485 -0.004905 -0.022138 0.000000
2.840000 0.042951 -0.010152 -0.011724 0.000000
2.842000 0.042951 -0.010866 -0.011724 0.000000
2.844000 0.042951 -0.010854 -0.006862 0.000000
2.846000 0.042951 -0.011201 -0.007636 0.000000
2.848000 0.042951 -0.011500 -0.000277 0.000000
2.850000 0.042951 -0.007724 -0.004720 0.000000
2.852000 0.042951 -0.003802 -0.004720 0.000000
2.854000 0.042951 -0.003824 -0.008905 0.000000
2.856000 0.042951 -0.005038 -0.000894 0.000000
2.858000 0.042951 -0.003522 0.015692 0.000000
2.860000 0.041417 0.001933 0.015692 0.000000
2.862000 0.041417 0.001920 0.016379 0.000000
2.864000 0.041417 0.002356 0.000641 0.000000
2.866000 0.041417 0.000797 -0.015774 0.000000
2.868000 0.041417 -0.003261 -0.012994 0.000000
2.870000 0.041417 -0.002701 -0.012994 0.000000
2.872000 0.041417 -0.002753 -0.003401 0.000000
2.874000 0.041417 -0.002573 0.010861 0.000000
2.876000 0.041417 0.001265 0.023711 0.000000
2.878000 0.041417 0.007029 0.023711 0.000000
2.880000 0.041417 0.007004 0.030418 0.000000
2.882000 0.039884 0.010833 -0.000696 0.000000
2.884000 0.039884 0.007384 -0.028561 0.000000
2.886000 0.039884 -0.002635 -0.008856 0.000000
2.888000 0.039884 -0.003564 -0.008856 0.000000
2.890000 0.039884 -0.003604 0.009890 0.000000
2.892000 0.039884 0.001248 0.022722 0.000000
2.894000 0.039884 0.007571 0.026219 0.000000
2.896000 0.039884 0.011440 0.031408 0.000000
2.898000 0.039884 0.017806 0.031408 0.000000
2.900000 0.039884 0.017743 -0.009992 0.000000
2.902000 0.039884 0.008361 -0.040127 0.000000
2.904000 0.039884 -0.007874 0.002616 0.000000
2.906000 0.039884 -0.005286 0.002616 0.000000
2.908000 0.039884 -0.005315 0.014737 0.000000
2.910000 0.039884 0.001233 0.006994 0.000000
2.912000 0.039884 0.001109 0.008876 0.000000
2.914000 0.038350 0.000859 0.004352 0.000000
2.916000 0.038350 0.005683 0.004352 0.000000
2.918000 0.038350 0.005649 -0.038038 0.000000
2.920000 0.038350 -0.009468 -0.051988 0.000000
2.922000 0.038350 -0.024453 0.006602 0.000000
2.924000 0.038350 -0.016432 0.006602 0.000000
2.926000 0.038350 -0.016388 0.008998 0.000000
2.928000 0.038350 -0.008052 0.005158 0.000000
2.930000 0.038350 -0.006273 0.012210 0.000000
2.932000 0.038350 -0.001750 -0.011794 0.000000
2.934000 0.038350 0.001337 -0.011794 0.000000
2.936000 0.038350 0.001313 -0.039310 0.000000
2.938000 0.038350 -0.014245 -0.041372 0.000000
2.940000 0.038350 -0.024949 -0.021928 0.000000
2.942000 0.038350 -0.025332 -0.021928 0.000000
2.944000 0.036816 -0.025272 -0.000117 0.000000
2.946000 0.036816 -0.019259 -0.000409 0.000000
2.948000 0.036816 -0.015787 0.011874 0.000000
2.950000 0.036816 -0.004092 -0.015550 0.000000
2.952000 0.036816 -0.002699 -0.015550 0.000000
2.954000 0.036816 -0.002707 -0.042143 0.000000
2.956000 0.036816 -0.019469 -0.053420 0.000000
2.958000 0.036816 -0.033461 -0.041950 0.000000
2.960000 0.036816 -0.037225 -0.007113 0.000000
2.962000 0.036816 -0.031133 -0.007113 0.000000
2.964000 0.036816 -0.031036 0.017089 0.000000
2.966000 0.036816 -0.011107 0.022912 0.000000
2.968000 0.036816 0.006426 -0.001229 0.000000
2.970000 0.036816 0.003428 -0.001229 0.000000
2.972000 0.035282 0.003419 -0.028602 0.000000
2.974000 0.035282 -0.012494 -0.044642 0.000000
2.976000 0.035282 -0.025977 -0.033578 0.000000
2.978000 0.035282 -0.029274 0.021213 0.000000
2.980000 0.035282 -0.014631 0.021213 0.000000
2.982000 0.035282 -0.014584 0.039503 0.000000
2.984000 0.035282 0.012104 0.014900 0.000000
2.986000 0.035282 0.015580 -0.015790 0.000000
2.988000 0.035282 0.000339 -0.015790 0.000000
2.990000 0.035282 0.000309 -0.043424 0.000000
2.992000 0.035282 -0.020129 -0.051893 0.000000
2.994000 0.035282 -0.031822 -0.035452 0.000000
2.996000 0.035282 -0.035951 0.045596 0.000000
2.998000 0.035282 -0.005400 0.045596 0.000000
3.000000 0.035282 -0.005355 0.036152 0.000000
3.002000 0.035282 0.016913 0.006945 0.000000
3.004000 0.033748 0.012250 -0.061386 0.000000
3.006000 0.033748 -0.019293 -0.061386 0.000000
3.008000 0.033748 -0.019283 -0.045709 0.000000
3.010000 0.033748 -0.028926 -0.034886 0.000000
3.012000 0.033748 -0.033328 0.012706 0.000000
3.014000 0.033748 -0.022238 0.080234 0.000000
3.016000 0.033748 0.023492 0.080234 0.000000
3.018000 0.033748 0.023481 0.028132 0.000000
3.020000 0.033748 0.027362 -0.029533 0.000000
3.022000 0.033748 0.002203 -0.066896 0.000000
3.024000 0.033748 -0.024785 -0.038270 0.000000
3.026000 0.033748 -0.030202 -0.038270 0.000000
3.028000 0.033748 -0.030126 -0.005216 0.000000
3.030000 0.033748 -0.026432 0.060885 0.000000
3.032000 0.033748 0.006076 0.056302 0.000000
3.034000 0.033748 0.035089 0.056302 0.000000
3.036000 0.033748 0.035022 -0.017198 0.000000
3.038000 0.033748 0.010330 -0.061973 0.000000
3.040000 0.032214 -0.018956 -0.093393 0.000000
3.042000 0.032214 -0.046755 -0.002834 0.000000
3.044000 0.032214 -0.033920 -0.002834 0.000000
3.046000 0.032214 -0.033795 0.058133 0.000000
3.048000 0.032214 0.001233 0.082931 0.000000
3.050000 0.033748 0.035928 -0.005276 0.000000
3.052000 0.033748 0.024389 -0.005276 0.000000
3.054000 0.032214 0.024293 -0.053172 0.000000
3.056000 0.032214 -0.008718 -0.100015 0.000000
3.058000 0.032214 -0.044844 -0.047959 0.000000
3.060000 0.032214 -0.045378 0.053315 0.000000
3.062000 0.032214 -0.013753 0.053315 0.000000
3.064000 0.032214 -0.013656 0.086662 0.000000
3.066000 0.032214 0.029907 0.042472 0.000000
3.068000 0.032214 0.037977 -0.060148 0.000000
3.070000 0.032214 -0.000401 -0.060148 0.000000
3.072000 0.032214 -0.000475 -0.095456 0.000000
3.074000 0.032214 -0.041382 -0.056564 0.000000
3.076000 0.032214 -0.046593 -0.015917 0.000000
3.078000 0.032214 -0.036842 0.098357 0.000000
3.080000 0.032214 0.013478 0.098357 0.000000
3.082000 0.032214 0.013527 0.038798 0.000000
3.084000 0.032214 0.025582 -0.022345 0.000000
3.086000 0.032214 0.005994 -0.087793 0.000000
3.088000 0.032214 -0.031576 -0.087793 0.000000
3.090000 0.030680 -0.031546 -0.049122 0.000000
3.092000 0.030680 -0.038118 -0.013955 0.000000
3.094000 0.030680 -0.030736 0.037498 0.000000
3.096000 0.030680 -0.008704 0.016281 0.000000
3.098000 0.030680 0.008397 0.016281 0.000000
3.100000 0.032214 0.008382 -0.032335 0.000000
3.102000 0.030680 -0.009646 -0.072193 0.000000
3.104000 0.030680 -0.034496 -0.044588 0.000000
3.106000 0.030680 -0.040372 -0.000756 0.000000
3.108000 0.030680 -0.028065 -0.000756 0.000000
3.110000 0.030680 -0.027912 0.032599 0.000000
3.112000 0.030680 -0.007150 0.049986 0.000000
3.114000 0.030680 0.016771 -0.058923 0.000000
3.116000 0.030680 -0.004922 -0.058923 0.000000
3.118000 0.030680 -0.004961 -0.069393 0.000000
3.120000 0.030680 -0.031502 -0.081736 0.000000
3.122000 0.030680 -0.051928 -0.033853 0.000000
3.124000 0.030680 -0.046008 0.061358 0.000000
3.126000 0.030680 -0.013056 0.061358 0.000000
3.128000 0.030680 -0.012913 0.071685 0.000000
3.130000 0.030680 0.022299 -0.023225 0.000000
3.132000 0.030680 0.009788 -0.086946 0.000000
3.134000 0.030680 -0.026096 -0.086946 0.000000
3.136000 0.030680 -0.026098 -0.072937 0.000000
3.138000 0.030680 -0.045762 -0.023554 0.000000
3.140000 0.029146 -0.038048 0.020357 0.000000
3.142000 0.029146 -0.019478 0.078451 0.000000
3.144000 0.030680 0.015874 0.078451 0.000000
3.146000 0.030680 0.015908 -0.024502 0.000000
3.148000 0.030680 0.001176 -0.090793 0.000000
3.150000 0.030680 -0.033356 -0.066040 0.000000
3.152000 0.030680 -0.046752 -0.066040 0.000000
3.154000 0.029146 -0.046637 -0.010515 0.000000
3.156000 0.029146 -0.032334 0.036531 0.000000
3.158000 0.029146 -0.009659 0.069825 0.000000
3.160000 0.029146 0.016846 -0.012986 0.000000
3.162000 0.029146 0.013084 -0.012986 0.000000
3.164000 0.029146 0.013041 -0.074694 0.000000
3.166000 0.029146 -0.022671 -0.103600 0.000000
3.168000 0.029146 -0.053394 0.012178 0.000000
3.170000 0.029146 -0.031760 0.058235 0.000000
3.172000 0.029146 -0.003003 0.058235 0.000000
3.174000 0.029146 -0.002893 0.082480 0.000000
3.176000 0.029146 0.029605 0.052185 0.000000
3.178000 0.029146 0.039688 -0.072852 0.000000
3.180000 0.029146 0.002442 -0.072852 0.000000
3.182000 0.029146 0.002352 -0.085395 0.000000
3.184000 0.029146 -0.033376 -0.051953 0.000000
3.186000 0.029146 -0.040982 0.065922 0.000000
3.188000 0.029146 -0.005685 0.090832 0.000000
3.190000 0.029146 0.026731 0.090832 0.000000
3.192000 0.029146 0.026744 0.046281 0.000000
3.194000 0.029146 0.035997 -0.044219 0.000000
3.196000 0.029146 0.007640 -0.080571 0.000000
3.198000 0.029146 -0.022941 -0.080571 0.000000
3.200000 0.029146 -0.022933 -0.034213 0.000000
3.202000 0.029146 -0.027293 0.009911 0.000000
3.204000 0.029146 -0.014834 0.055901 0.000000
3.206000 0.029146 0.008440 0.034020 0.000000
3.208000 0.029146 0.020470 0.034020 0.000000
3.210000 0.029146 0.020438 -0.037496 0.000000
3.212000 0.029146 -0.002185 -0.094766 0.000000
3.214000 0.029146 -0.036273 -0.031673 0.000000
3.216000 0.029146 -0.036036 -0.031673 0.000000
3.218000 0.029146 -0.035911 0.017262 0.000000
3.220000 0.029146 -0.014927 0.048312 0.000000
3.222000 0.029146 0.006001 0.059155 0.000000
3.224000 0.029146 0.024938 -0.047974 0.000000
3.226000 0.029146 0.003595 -0.047974 0.000000
3.228000 0.029146 0.003544 -0.087521 0.000000
3.230000 0.029146 -0.033054 -0.082488 0.000000
3.232000 0.029146 -0.051452 0.020687 0.000000
3.234000 0.029146 -0.027320 0.059776 0.000000
3.236000 0.029146 0.000875 0.059776 0.000000
3.238000 0.029146 0.000973 0.052383 0.000000
3.240000 0.029146 0.020841 -0.001688 0.000000
3.242000 0.029146 0.014220 -0.068414 0.000000
3.244000 0.029146 -0.013337 -0.068414 0.000000
3.246000 0.029146 -0.013347 -0.062587 0.000000
3.248000 0.027612 -0.033689 -0.026397 0.000000
3.250000 0.027612 -0.032195 0.037247 0.000000
3.252000 0.027612 -0.009696 0.040938 0.000000
3.254000 0.027612 0.008601 0.040938 0.000000
3.256000 0.029146 0.008622 -0.014891 0.000000
3.258000 0.029146 0.000137 -0.069838 0.000000
3.260000 0.029146 -0.025186 -0.050404 0.000000
3.262000 0.029146 -0.034972 -0.050404 0.000000
3.264000 0.027612 -0.034865 -0.020043 0.000000
3.266000 0.027612 -0.029219 0.007942 0.000000
3.268000 0.027612 -0.017501 0.006390 0.000000
3.270000 0.027612 -0.008230 -0.025845 0.000000
3.272000 0.029146 -0.011890 -0.025845 0.000000
3.274000 0.029146 -0.011855 -0.057726 0.000000
3.276000 0.029146 -0.029490 -0.060449 0.000000
3.278000 0.027612 -0.041214 -0.003446 0.000000
3.280000 0.027612 -0.030795 0.024079 0.000000
3.282000 0.027612 -0.014198 0.024079 0.000000
3.284000 0.027612 -0.014060 0.018776 0.000000
3.286000 0.027612 -0.003183 -0.010075 0.000000
3.288000 0.027612 -0.003597 -0.057058 0.000000
3.290000 0.027612 -0.018572 -0.057058 0.000000
3.292000 0.027612 -0.018547 -0.047047 0.000000
3.294000 0.027612 -0.029448 -0.030757 0.000000
3.296000 0.027612 -0.031359 0.015262 0.000000
3.298000 0.027612 -0.017758 0.017108 0.000000
3.300000 0.027612 -0.007659 0.017108 0.000000
3.302000 0.027612 -0.007574 -0.011881 0.000000
3.304000 0.027612 -0.007932 -0.067292 0.000000
3.306000 0.027612 -0.026840 -0.037873 0.000000
3.308000 0.027612 -0.029062 -0.037873 0.000000
3.310000 0.027612 -0.028960 -0.018673 0.000000
3.312000 0.027612 -0.025603 0.006405 0.000000
3.314000 0.027612 -0.015754 0.008378 0.000000
3.316000 0.027612 -0.010510 0.001604 0.000000
3.318000 0.027612 -0.004119 0.001604 0.000000
3.320000 0.027612 -0.004071 -0.033504 0.000000
3.322000 0.027612 -0.012619 -0.049103 0.000000
3.324000 0.027612 -0.024724 -0.001918 0.000000
3.326000 0.027612 -0.018484 -0.001918 0.000000
3.328000 0.027612 -0.018385 0.016738 0.000000
3.330000 0.027612 -0.005923 0.017890 0.000000
3.332000 0.027612 -0.000086 -0.011354 0.000000
3.334000 0.027612 -0.002595 -0.020827 0.000000
3.336000 0.027612 -0.004442 -0.020827 0.000000
3.338000 0.027612 -0.004431 -0.027737 0.000000
3.340000 0.027612 -0.012531 -0.034960 0.000000
3.342000 0.027612 -0.021778 0.005602 0.000000
3.344000 0.027612 -0.015628 0.018242 0.000000
3.346000 0.027612 -0.006224 0.018242 0.000000
3.348000 0.027612 -0.006145 0.009368 0.000000
3.350000 0.027612 -0.003194 -0.014539 0.000000
3.352000 0.027612 0.000186 -0.003604 0.000000
3.354000 0.027612 0.000839 -0.003604 0.000000
3.356000 0.027612 0.000861 -0.013887 0.000000
3.358000 0.027612 -0.005823 -0.020333 0.000000
3.360000 0.027612 -0.013590 -0.006006 0.000000
3.362000 0.027612 -0.013722 0.002814 0.000000
3.364000 0.027612 -0.009555 0.002814 0.000000
3.366000 0.027612 -0.009494 0.002252 0.000000
3.368000 0.027612 -0.002438 -0.015791 0.000000
3.370000 0.027612 -0.003113 -0.011331 0.000000
3.372000 0.027612 -0.006043 -0.011331 0.000000
3.374000 0.027612 -0.005998 -0.019233 0.000000
3.376000 0.027612 -0.014098 -0.029088 0.000000
3.378000 0.027612 -0.021619 -0.020051 0.000000
3.380000 0.027612 -0.023093 0.005363 0.000000
3.382000 0.027612 -0.009897 0.005363 0.000000
3.384000 0.027612 -0.009822 -0.007880 0.000000
3.386000 0.027612 -0.004436 -0.005682 0.000000
3.388000 0.027612 -0.004004 -0.022026 0.000000
3.390000 0.027612 -0.014966 -0.022026 0.000000
3.392000 0.027612 -0.014892 -0.014035 0.000000
3.394000 0.027612 -0.016122 -0.026497 0.000000
3.396000 0.027612 -0.021753 0.004680 0.000000
3.398000 0.027612 -0.009290 -0.001834 0.000000
3.400000 0.027612 -0.002172 -0.001834 0.000000
3.402000 0.027612 -0.002132 -0.003084 0.000000
3.404000 0.027612 -0.001479 -0.030761 0.000000
3.406000 0.027612 -0.014278 -0.041275 0.000000
3.408000 0.027612 -0.027935 -0.029576 0.000000
3.410000 0.027612 -0.029713 -0.029576 0.000000
3.412000 0.027612 -0.029592 -0.011891 0.000000
3.414000 0.027612 -0.023840 -0.001906 0.000000
3.416000 0.027612 -0.008678 -0.004486 0.000000
3.418000 0.027612 -0.005778 -0.004486 0.000000
3.420000 0.027612 -0.005719 -0.027139 0.000000
3.422000 0.027612 -0.016580 -0.057806 0.000000
3.424000 0.027612 -0.035523 -0.037985 0.000000
3.426000 0.027612 -0.037233 -0.009155 0.000000
3.428000 0.027612 -0.027668 -0.009155 0.000000
3.430000 0.027612 -0.027526 0.018237 0.000000
3.432000 0.027612 -0.005960 -0.011139 0.000000
3.434000 0.027612 -0.005022 -0.024659 0.000000
3.436000 0.027612 -0.014038 -0.024659 0.000000
3.438000 0.027612 -0.013968 -0.041896 0.000000
3.440000 0.027612 -0.029245 -0.054070 0.000000
3.442000 0.027612 -0.039093 -0.007244 0.000000
3.444000 0.027612 -0.027134 0.020482 0.000000
3.446000 0.027612 -0.007584 0.020482 0.000000
3.448000 0.027612 -0.007499 0.013551 0.000000
3.450000 0.027612 0.003057 -0.046939 0.000000
3.452000 0.027612 -0.017991 -0.050428 0.000000
3.454000 0.027612 -0.032276 -0.050428 0.000000
3.456000 0.027612 -0.032165 -0.044324 0.000000
3.458000 0.027612 -0.036906 -0.020868 0.000000
3.460000 0.027612 -0.031845 0.019394 0.000000
3.462000 0.027612 -0.008469 0.020627 0.000000
3.464000 0.027612 0.003527 0.020627 0.000000
3.466000 0.027612 0.003572 -0.013935 0.000000
3.468000 0.027612 -0.004641 -0.046583 0.000000
3.470000 0.027612 -0.022801 -0.036223 0.000000
3.472000 0.027612 -0.029340 -0.036223 0.000000
3.474000 0.027612 -0.029216 0.002776 0.000000
3.476000 0.027612 -0.016171 0.024628 0.000000
3.478000 0.027612 0.000095 0.014955 0.000000
3.480000 0.027612 0.010153 -0.015300 0.000000
3.482000 0.027612 0.000503 -0.015300 0.000000
3.484000 0.027612 0.000508 -0.042977 0.000000
3.486000 0.027612 -0.020565 -0.052423 0.000000
3.488000 0.027612 -0.034344 0.015657 0.000000
3.490000 0.027612 -0.016544 0.040492 0.000000
3.492000 0.027612 0.005875 0.040492 0.000000
3.494000 0.027612 0.005944 0.019450 0.000000
3.496000 0.027612 0.014312 -0.038884 0.000000
3.498000 0.027612 -0.006058 -0.051205 0.000000
3.500000 0.029146 -0.024538 -0.051205 0.000000
3.502000 0.029146 -0.024472 -0.034562 0.000000
3.504000 0.027612 -0.028652 -0.006864 0.000000
3.506000 0.027612 -0.021189 0.048235 0.000000
3.508000 0.027612 0.006199 0.030296 0.000000
3.510000 0.029146 0.017091 0.030296 0.000000
3.512000 0.029146 0.017097 -0.018125 0.000000
3.514000 0.029146 0.003113 -0.071368 0.000000
3.516000 0.029146 -0.028999 -0.047247 0.000000
3.518000 0.029146 -0.035053 -0.047247 0.000000
3.520000 0.029146 -0.034925 0.012972 0.000000
3.522000 0.029146 -0.014477 0.046108 0.000000
3.524000 0.029146 0.007153 0.018113 0.000000
3.526000 0.029146 0.016340 -0.025670 0.000000
3.528000 0.029146 0.002178 -0.025670 0.000000
3.530000 0.029146 0.002167 -0.065014 0.000000
3.532000 0.029146 -0.027976 -0.055355 0.000000
3.534000 0.029146 -0.039228 0.016777 0.000000
3.536000 0.029146 -0.019670 0.016777 0.000000
3.538000 0.029146 -0.019525 0.053710 0.000000
3.540000 0.029146 0.010827 0.048859 0.000000
3.542000 0.029146 0.027659 -0.043339 0.000000
3.544000 0.029146 0.002944 -0.068118 0.000000
3.546000 0.029146 -0.024153 -0.068118 0.000000
3.548000 0.029146 -0.024108 -0.067118 0.000000
3.550000 0.029146 -0.042701 -0.029837 0.000000
3.552000 0.029146 -0.037298 0.055203 0.000000
3.554000 0.029146 -0.003263 0.043684 0.000000
3.556000 0.029146 0.015464 0.043684 0.000000
3.558000 0.029146 0.015491 0.000059 0.000000
3.560000 0.029146 0.009385 -0.094568 0.000000
3.562000 0.029146 -0.032743 -0.072227 0.000000
3.564000 0.029146 -0.046994 -0.072227 0.000000
3.566000 0.029146 -0.046847 -0.019158 0.000000
3.568000 0.029146 -0.034512 0.026453 0.000000
3.570000 0.029146 -0.013208 0.023926 0.000000
3.572000 0.029146 0.004932 -0.014214 0.000000
3.574000 0.029146 -0.001083 -0.014214 0.000000
3.576000 0.029146 -0.001058 -0.070814 0.000000
3.578000 0.029146 -0.031975 -0.074393 0.000000
3.580000 0.029146 -0.049204 -0.012404 0.000000
3.582000 0.029146 -0.035767 -0.012404 0.000000
3.584000 0.029146 -0.035570 0.042927 0.000000
3.586000 0.029146 -0.003638 0.051480 0.000000
3.588000 0.029146 0.018464 -0.029656 0.000000
3.590000 0.029146 0.003900 -0.064985 0.000000
3.592000 0.029146 -0.022196 -0.064985 0.000000
3.594000 0.029146 -0.022151 -0.082388 0.000000
3.596000 0.029146 -0.048919 -0.002763 0.000000
3.598000 0.029146 -0.032095 0.055306 0.000000
3.600000 0.029146 -0.000151 0.055306 0.000000
3.602000 0.029146 -0.000035 0.055286 0.000000
3.604000 0.029146 0.024724 0.002686 0.000000
3.606000 0.029146 0.017137 -0.090362 0.000000
3.608000 0.029146 -0.023653 -0.074227 0.000000
3.610000 0.029146 -0.042157 -0.074227 0.000000
3.612000 0.029146 -0.042033 -0.030970 0.000000
3.614000 0.029146 -0.036309 0.049292 0.000000
3.616000 0.029146 -0.004734 0.050088 0.000000
3.618000 0.029146 0.017287 0.002874 0.000000
3.620000 0.029146 0.013362 0.002874 0.000000
3.622000 0.029146 0.013339 -0.064376 0.000000
3.624000 0.029146 -0.019609 -0.069787 0.000000
3.626000 0.029146 -0.040719 -0.007761 0.000000
3.628000 0.029146 -0.027960 -0.007761 0.000000
3.630000 0.029146 -0.027792 0.052665 0.000000
3.632000 0.029146 0.004517 0.057587 0.000000
3.634000 0.029146 0.025451 -0.011033 0.000000
3.636000 0.029146 0.015399 -0.065244 0.000000
3.638000 0.029146 -0.013761 -0.065244 0.000000
3.640000 0.029146 -0.013764 -0.076556 0.000000
3.642000 0.029146 -0.041266 0.001057 0.000000
3.644000 0.029146 -0.025917 0.066239 0.000000
3.646000 0.029146 0.006501 0.066239 0.000000
3.648000 0.029146 0.006607 0.074073 0.000000
3.650000 0.029146 0.035966 0.014495 0.000000
3.652000 0.029146 0.029420 -0.078246 0.000000
3.654000 0.029146 -0.010095 -0.065884 0.000000
3.656000 0.029146 -0.030943 -0.065884 0.000000
3.658000 0.029146 -0.030869 -0.018647 0.000000
3.660000 0.029146 -0.025113 0.064242 0.000000
3.662000 0.029146 0.007091 0.073261 0.000000
3.664000 0.029146 0.033190 0.073261 0.000000
3.666000 0.029146 0.033184 0.014095 0.000000
3.668000 0.029146 0.026109 -0.056531 0.000000
3.670000 0.029146 -0.005021 -0.080832 0.000000
3.672000 0.029146 -0.034903 -0.013593 0.000000
3.674000 0.029146 -0.026377 -0.013593 0.000000
3.676000 0.029146 -0.026241 0.053527 0.000000
3.678000 0.029146 0.005449 0.040645 0.000000
3.680000 0.029146 0.022235 -0.009682 0.000000
3.682000 0.030680 0.012526 -0.067439 0.000000
3.684000 0.030680 -0.016214 -0.067439 0.000000
3.686000 0.030680 -0.016208 -0.094873 0.000000
3.688000 0.029146 -0.050007 -0.010836 0.000000
3.690000 0.029146 -0.035312 0.065067 0.000000
3.692000 0.029146 -0.000494 0.065067 0.000000
3.694000 0.029146 -0.000360 0.073010 0.000000
3.696000 0.030680 0.030546 -0.028476 0.000000
3.698000 0.030680 0.010975 -0.078629 0.000000
3.700000 0.030680 -0.021770 -0.089196 0.000000
3.702000 0.030680 -0.047055 -0.089196 0.000000
3.704000 0.030680 -0.046933 -0.036817 0.000000
3.706000 0.030680 -0.042200 0.058208 0.000000
3.708000 0.030680 -0.006096 0.072085 0.000000
3.710000 0.030680 0.023503 0.072085 0.000000
3.712000 0.030680 0.023535 0.011648 0.000000
3.714000 0.030680 0.019309 -0.056864 0.000000
3.716000 0.030680 -0.008795 -0.094140 0.000000
3.718000 0.030680 -0.042441 -0.035730 0.000000
3.720000 0.030680 -0.039371 -0.035730 0.000000
3.722000 0.030680 -0.039202 0.025697 0.000000
3.724000 0.030680 -0.013481 0.040971 0.000000
3.726000 0.030680 0.009853 -0.004578 0.000000
3.728000 0.030680 0.005857 -0.004578 0.000000
3.730000 0.030680 0.005858 -0.061857 0.000000
3.732000 0.030680 -0.022766 -0.099979 0.000000
3.734000 0.030680 -0.053448 -0.026470 0.000000
3.736000 0.030680 -0.044133 0.051993 0.000000
3.738000 0.030680 -0.010920 0.051993 0.000000
3.740000 0.030680 -0.010755 0.061155 0.000000
3.742000 0.030680 0.019289 -0.026688 0.000000
3.744000 0.030680 0.004342 -0.073634 0.000000
3.746000 0.030680 -0.023625 -0.083735 0.000000
3.748000 0.030680 -0.046587 -0.083735 0.000000
3.750000 0.030680 -0.046466 -0.045061 0.000000
3.752000 0.030680 -0.046752 0.050493 0.000000
3.754000 0.030680 -0.011446 0.064223 0.000000
3.756000 0.030680 0.017024 0.064223 0.000000
3.758000 0.030680 0.017077 0.010142 0.000000
3.760000 0.030680 0.015010 -0.094234 0.000000
3.762000 0.030680 -0.027688 -0.084677 0.000000
3.764000 0.030680 -0.048914 -0.025068 0.000000
3.766000 0.030680 -0.039965 -0.025068 0.000000
3.768000 0.030680 -0.039778 0.036667 0.000000
3.770000 0.030680 -0.008973 0.045263 0.000000
3.772000 0.030680 0.013159 -0.000123 0.000000
3.774000 0.030680 0.009414 -0.000123 0.000000
3.776000 0.030680 0.009400 -0.059488 0.000000
3.778000 0.030680 -0.019616 -0.080585 0.000000
3.780000 0.030680 -0.044518 -0.017189 0.000000
3.782000 0.029146 -0.033780 0.057227 0.000000
3.784000 0.029146 -0.002458 0.057227 0.000000
3.786000 0.029146 -0.002326 0.064519 0.000000
3.788000 0.029146 0.025089 -0.023479 0.000000
3.790000 0.030680 0.009685 -0.076633 0.000000
3.792000 0.030680 -0.021217 -0.082045 0.000000
3.794000 0.030680 -0.044178 -0.082045 0.000000
3.796000 0.029146 -0.044080 -0.045847 0.000000
3.798000 0.029146 -0.045231 0.065718 0.000000
3.800000 0.029146 -0.004101 0.074656 0.000000
3.802000 0.029146 0.025451 0.074656 0.000000
3.804000 0.029146 0.025481 0.019412 0.000000
3.806000 0.029146 0.023517 -0.089046 0.000000
3.808000 0.029146 -0.019801 -0.077489 0.000000
3.810000 0.029146 -0.040792 -0.013521 0.000000
3.812000 0.029146 -0.031139 -0.013521 0.000000
3.814000 0.029146 -0.030989 0.039756 0.000000
3.816000 0.029146 -0.003163 0.063926 0.000000
3.818000 0.029146 0.023802 0.003356 0.000000
3.820000 0.029146 0.017817 0.003356 0.000000
3.822000 0.029146 0.017764 -0.056700 0.000000
3.824000 0.029146 -0.013134 -0.071068 0.000000
3.826000 0.029146 -0.036761 -0.008653 0.000000
3.828000 0.029146 -0.026116 0.067282 0.000000
3.830000 0.029146 0.005772 0.067282 0.000000
3.832000 0.029146 0.005863 0.075722 0.000000
3.834000 0.029146 0.034272 -0.022252 0.000000
3.836000 0.029146 0.015641 -0.077318 0.000000
3.838000 0.029146 -0.017665 -0.077318 0.000000
3.840000 0.029146 -0.017682 -0.091544 0.000000
3.842000 0.029146 -0.049108 -0.001614 0.000000
3.844000 0.029146 -0.032263 0.071033 0.000000
3.846000 0.029146 0.004336 0.082499 0.000000
3.848000 0.029146 0.033078 0.082499 0.000000
3.850000 0.029146 0.033076 0.023875 0.000000
3.852000 0.029146 0.029981 -0.088107 0.000000
3.854000 0.029146 -0.015363 -0.082806 0.000000
3.856000 0.029146 -0.040099 -0.020951 0.000000
3.858000 0.029146 -0.033521 -0.020951 0.000000
3.860000 0.029146 -0.033376 0.064476 0.000000
3.862000 0.029146 0.005994 0.055347 0.000000
3.864000 0.029146 0.025299 -0.003414 0.000000
3.866000 0.029146 0.015891 -0.003414 0.000000
3.868000 0.029146 0.015826 -0.065934 0.000000
3.870000 0.029146 -0.018052 -0.083872 0.000000
3.872000 0.029146 -0.044440 -0.024602 0.000000
3.874000 0.029146 -0.036869 0.048298 0.000000
3.876000 0.029146 -0.007576 0.048298 0.000000
3.878000 0.029146 -0.007444 0.060249 0.000000
3.880000 0.029146 0.020351 -0.030390 0.000000
3.882000 0.029146 0.003600 -0.088247 0.000000
3.884000 0.029146 -0.029543 -0.088247 0.000000
3.886000 0.029146 -0.029521 -0.101995 0.000000
3.888000 0.029146 -0.060069 -0.009701 0.000000
3.890000 0.029146 -0.041647 0.054322 0.000000
3.892000 0.029146 -0.007134 0.064209 0.000000
3.894000 0.029146 0.018972 0.064209 0.000000
3.896000 0.029146 0.019014 0.006454 0.000000
3.898000 0.029146 0.013893 -0.088456 0.000000
3.900000 0.029146 -0.025440 -0.082893 0.000000
3.902000 0.029146 -0.046810 -0.082893 0.000000
3.904000 0.029146 -0.046705 -0.026544 0.000000
3.906000 0.027612 -0.038122 0.054916 0.000000
3.908000 0.027612 -0.004797 0.041048 0.000000
3.910000 0.027612 0.012716 -0.018678 0.000000
3.912000 0.029146 0.002787 -0.018678 0.000000
3.914000 0.029146 0.002764 -0.077900 0.000000
3.916000 0.029146 -0.030742 -0.068042 0.000000
3.918000 0.027612 -0.046344 -0.009525 0.000000
3.920000 0.027612 -0.033032 0.063651 0.000000
3.922000 0.027612 0.000003 0.063651 0.000000
3.924000 0.027612 0.000123 0.020890 0.000000
3.926000 0.027612 0.009227 -0.037276 0.000000
3.928000 0.027612 -0.007685 -0.095661 0.000000
3.930000 0.027612 -0.039157 -0.095661 0.000000
3.932000 0.027612 -0.039106 -0.099564 0.000000
3.934000 0.027612 -0.063807 0.006944 0.000000
3.936000 0.027612 -0.038226 0.071343 0.000000
3.938000 0.027612 0.000441 0.075172 0.000000
3.940000 0.027612 0.027517 0.075172 0.000000
3.942000 0.027612 0.027532 -0.053731 0.000000
3.944000 0.027612 -0.005417 -0.094708 0.000000
3.946000 0.027612 -0.039503 -0.076552 0.000000
3.948000 0.027612 -0.053385 -0.076552 0.000000
3.950000 0.027612 -0.053242 -0.008682 0.000000
3.952000 0.027612 -0.033930 0.071179 0.000000
3.954000 0.027612 0.004105 0.054663 0.000000
3.956000 0.027612 0.022657 -0.006224 0.000000
3.958000 0.027612 0.012891 -0.006224 0.000000
3.960000 0.027612 0.012841 -0.077703 0.000000
3.962000 0.027612 -0.024761 -0.052785 0.000000
3.964000 0.027612 -0.036172 0.011988 0.000000
3.966000 0.027612 -0.019330 0.011988 0.000000
3.968000 0.027612 -0.019199 0.085751 0.000000
3.970000 0.027612 0.022691 0.019726 0.000000
3.972000 0.027612 0.023126 -0.036732 0.000000
3.974000 0.027612 0.002738 -0.091996 0.000000
3.976000 0.027612 -0.030884 -0.091996 0.000000
3.978000 0.027612 -0.030871 -0.100631 0.000000
3.980000 0.027612 -0.059755 0.021936 0.000000
3.982000 0.027612 -0.029139 0.078489 0.000000
3.984000 0.027612 0.009434 0.072931 0.000000
3.986000 0.027612 0.032397 0.072931 0.000000
3.988000 0.027612 0.032379 -0.066622 0.000000
3.990000 0.027612 -0.008583 -0.099214 0.000000
3.992000 0.027612 -0.042399 -0.071049 0.000000
3.994000 0.027612 -0.052618 -0.071049 0.000000
3.996000 0.026078 -0.052465 -0.007977 0.000000
3.998000 0.026078 -0.033574 0.065475 0.000000
4.000000 0.026078 0.002555 0.044577 0.000000
4.002000 0.026078 0.018514 -0.015364 0.000000
4.004000 0.027612 0.007651 -0.015364 0.000000
4.006000 0.027612 0.007612 -0.088159 0.000000
4.008000 0.026078 -0.033638 -0.043573 0.000000
4.010000 0.026078 -0.037688 0.019430 0.000000
4.012000 0.026078 -0.017516 0.019430 0.000000
4.014000 0.026078 -0.017378 0.079415 0.000000
4.016000 0.026078 0.021405 -0.002691 0.000000
4.018000 0.026078 0.012874 -0.065554 0.000000
4.020000 0.026078 -0.014549 -0.101367 0.000000
4.022000 0.026078 -0.044687 -0.101367 0.000000
4.024000 0.026078 -0.044627 -0.034260 0.000000
4.026000 0.026078 -0.040439 0.022158 0.000000
4.028000 0.026078 -0.017711 0.068252 0.000000
4.030000 0.026078 0.012926 0.068252 0.000000
4.032000 0.026078 0.013004 0.059719 0.000000
4.034000 0.026078 0.032495 -0.086950 0.000000
4.036000 0.026078 -0.011915 -0.106084 0.000000
4.038000 0.026078 -0.045747 -0.072763 0.000000
4.040000 0.026078 -0.054716 -0.072763 0.000000
4.042000 0.026078 -0.054549 -0.000930 0.000000
4.044000 0.026078 -0.031662 0.055841 0.000000
4.046000 0.026078 -0.000387 0.020065 0.000000
4.048000 0.026078 0.007929 0.020065 0.000000
4.050000 0.026078 0.007955 -0.040930 0.000000
4.052000 0.026078 -0.012000 -0.093307 0.000000
4.054000 0.026078 -0.043794 -0.039016 0.000000
4.056000 0.026078 -0.042508 0.023788 0.000000
4.058000 0.026078 -0.020206 0.023788 0.000000
4.060000 0.026078 -0.020049 0.072279 0.000000
4.062000 0.026078 0.016425 -0.027957 0.000000
4.064000 0.026078 0.000697 -0.076049 0.000000
4.066000 0.026078 -0.025324 -0.106622 0.000000
4.068000 0.026078 -0.053400 -0.106622 0.000000
4.070000 0.026078 -0.053296 -0.015504 0.000000
4.072000 0.026078 -0.038070 0.033983 0.000000
4.074000 0.026078 -0.012405 0.071811 0.000000
4.076000 0.026078 0.017154 0.071811 0.000000
4.078000 0.026078 0.017218 0.048144 0.000000
4.080000 0.026078 0.029853 -0.098034 0.000000
4.082000 0.026078 -0.017048 -0.102921 0.000000
4.084000 0.026078 -0.046921 -0.056527 0.000000
4.086000 0.026078 -0.049843 -0.056527 0.000000
4.088000 0.026078 -0.049674 0.056527 0.000000
4.090000 0.024544 -0.007167 0.057411 0.000000
4.092000 0.024544 0.016201 0.016925 0.000000
4.094000 0.026078 0.017881 0.016925 0.000000
4.096000 0.026078 0.017852 -0.041861 0.000000
4.098000 0.026078 -0.006053 -0.076379 0.000000
4.100000 0.026078 -0.033052 -0.019637 0.000000
4.102000 0.024544 -0.028808 0.035641 0.000000
4.104000 0.024544 -0.007473 0.035641 0.000000
4.106000 0.024544 -0.007357 0.047733 0.000000
4.108000 0.024544 0.013529 -0.023461 0.000000
4.110000 0.024544 0.001105 -0.069964 0.000000
4.112000 0.024544 -0.022735 -0.069964 0.000000
4.114000 0.024544 -0.022721 -0.080396 0.000000
4.116000 0.024544 -0.045408 0.001362 0.000000
4.118000 0.024544 -0.029961 0.057072 0.000000
4.120000 0.024544 -0.000262 0.076574 0.000000
4.122000 0.024544 0.025530 0.076574 0.000000
4.124000 0.024544 0.025553 0.038152 0.000000
4.126000 0.024544 0.030477 -0.095500 0.000000
4.128000 0.024544 -0.014313 -0.077258 0.000000
4.130000 0.024544 -0.035156 -0.029580 0.000000
4.132000 0.024544 -0.033136 -0.029580 0.000000
4.134000 0.024544 -0.033002 0.048359 0.000000
4.136000 0.024544 -0.001473 0.044082 0.000000
4.138000 0.024544 0.015230 0.003673 0.000000
4.140000 0.024544 0.012889 0.003673 0.000000
4.142000 0.024544 0.012861 -0.051945 0.000000
4.144000 0.024544 -0.012501 -0.065156 0.000000
4.146000 0.024544 -0.032359 -0.001861 0.000000
4.148000 0.024544 -0.022084 0.048657 0.000000
4.150000 0.024544 0.001329 0.048657 0.000000
4.152000 0.024544 0.001430 0.021976 0.000000
4.154000 0.024544 0.008161 -0.040985 0.000000
4.156000 0.024544 -0.008699 -0.070268 0.000000
4.158000 0.024544 -0.028774 -0.070268 0.000000
4.160000 0.024544 -0.028733 -0.065035 0.000000
4.162000 0.024544 -0.042424 0.014708 0.000000
4.164000 0.024544 -0.023636 0.052317 0.000000
4.166000 0.024544 0.001520 0.057641 0.000000
4.168000 0.024544 0.019784 0.057641 0.000000
4.170000 0.024544 0.019805 -0.073500 0.000000
4.172000 0.024544 -0.017179 -0.097042 0.000000
4.174000 0.024544 -0.045252 -0.073382 0.000000
4.176000 0.024544 -0.053978 -0.073382 0.000000
4.178000 0.024544 -0.053822 -0.020468 0.000000
4.180000 0.024544 -0.039497 0.039599 0.000000
4.182000 0.024544 -0.013197 0.015476 0.000000
4.184000 0.024544 -0.003287 -0.023409 0.000000
4.186000 0.024544 -0.008581 -0.023409 0.000000
4.188000 0.024544 -0.008542 -0.091072 0.000000
4.190000 0.024544 -0.040881 -0.056765 0.000000
4.192000 0.024544 -0.046433 0.003930 0.000000
4.194000 0.024544 -0.028966 0.042549 0.000000
4.196000 0.024544 -0.005915 0.042549 0.000000
4.198000 0.024544 -0.005779 -0.004564 0.000000
4.200000 0.024544 -0.007329 -0.071227 0.000000
4.202000 0.024544 -0.029414 -0.076856 0.000000
4.204000 0.024544 -0.044120 -0.076856 0.000000
4.206000 0.024544 -0.044010 -0.025931 0.000000
4.208000 0.024544 -0.036546 0.011556 0.000000
4.210000 0.024544 -0.020496 0.047695 0.000000
4.212000 0.024544 0.001711 0.034358 0.000000
4.214000 0.024544 0.011619 0.034358 0.000000
4.216000 0.024544 0.011645 -0.084463 0.000000
4.218000 0.024544 -0.026160 -0.094676 0.000000
4.220000 0.024544 -0.049948 -0.053336 0.000000
4.222000 0.024544 -0.050115 -0.053336 0.000000
4.224000 0.024544 -0.049938 -0.008698 0.000000
4.226000 0.024544 -0.033331 0.030585 0.000000
4.228000 0.024544 -0.013223 -0.005881 0.000000
4.230000 0.024544 -0.010551 -0.035131 0.000000
4.232000 0.024544 -0.016901 -0.035131 0.000000
4.234000 0.024544 -0.016842 -0.071025 0.000000
4.236000 0.024544 -0.037134 -0.036933 0.000000
4.238000 0.024544 -0.036799 0.009484 0.000000
4.240000 0.024544 -0.021204 0.009484 0.000000
4.242000 0.024544 -0.021048 0.041908 0.000000
4.244000 0.024544 0.003242 -0.024313 0.000000
4.246000 0.024544 -0.007143 -0.066257 0.000000
4.248000 0.024544 -0.026042 -0.054531 0.000000
4.250000 0.024544 -0.033764 -0.054531 0.000000
4.252000 0.024544 -0.033664 -0.009361 0.000000
4.254000 0.024544 -0.024065 0.023485 0.000000
4.256000 0.024544 -0.008379 0.042582 0.000000
4.258000 0.024544 0.007498 0.028241 0.000000
4.260000 0.024544 0.013526 0.028241 0.000000
4.262000 0.024544 0.013531 -0.059611 0.000000
4.264000 0.024544 -0.013730 -0.058704 0.000000
4.266000 0.024544 -0.028759 -0.022732 0.000000
4.268000 0.024544 -0.026053 -0.022732 0.000000
4.270000 0.024544 -0.025936 0.023055 0.000000
4.272000 0.024544 -0.009116 0.018839 0.000000
4.274000 0.024544 -0.000362 -0.008630 0.000000
4.276000 0.024544 -0.002379 -0.025996 0.000000
4.278000 0.024544 -0.008190 -0.025996 0.000000
4.280000 0.024544 -0.008168 -0.041661 0.000000
4.282000 0.024544 -0.019916 -0.021893 0.000000
4.284000 0.024544 -0.020767 0.012403 0.000000
4.286000 0.024544 -0.010534 0.012403 0.000000
4.288000 0.024544 -0.010429 0.003397 0.000000
4.290000 0.024544 -0.007890 -0.031352 0.000000
4.292000 0.024544 -0.014975 -0.055238 0.000000
4.294000 0.024544 -0.025520 -0.035616 0.000000
4.296000 0.024544 -0.026905 -0.035616 0.000000
4.298000 0.024544 -0.026803 -0.003483 0.000000
4.300000 0.024544 -0.018771 0.011452 0.000000
4.302000 0.024544 -0.009535 0.025200 0.000000
4.304000 0.024544 0.000891 0.025200 0.000000
4.306000 0.024544 0.000965 0.010703 0.000000
4.308000 0.024544 0.004481 -0.045240 0.000000
4.310000 0.024544 -0.010198 -0.038163 0.000000
4.312000 0.024544 -0.018828 -0.012693 0.000000
4.314000 0.024544 -0.016805 -0.012693 0.000000
4.316000 0.024544 -0.016713 0.006423 0.000000
4.318000 0.024544 -0.011615 0.000137 0.000000
4.320000 0.024544 -0.008265 -0.020510 0.000000
4.322000 0.024544 -0.011182 -0.023921 0.000000
4.324000 0.024544 -0.012626 -0.023921 0.000000
4.326000 0.024544 -0.012574 -0.034274 0.000000
4.328000 0.024544 -0.020284 -0.025159 0.000000
4.330000 0.024544 -0.022660 -0.009888 0.000000
4.332000 0.024544 -0.019883 -0.009888 0.000000
4.334000 0.024544 -0.019766 -0.024931 0.000000
4.336000 0.024544 -0.024138 -0.042829 0.000000
4.338000 0.024544 -0.029352 -0.045260 0.000000
4.340000 0.024544 -0.031154 -0.027695 0.000000
4.342000 0.024544 -0.027881 -0.027695 0.000000
4.344000 0.024544 -0.027748 -0.010505 0.000000
4.346000 0.024544 -0.023206 -0.005970 0.000000
4.348000 0.024544 -0.019323 -0.006870 0.000000
4.350000 0.024544 -0.015906 -0.006870 0.000000
4.352000 0.024544 -0.015795 -0.019630 0.000000
4.354000 0.024544 -0.015348 -0.030288 0.000000
4.356000 0.024544 -0.018732 -0.027891 0.000000
4.358000 0.024544 -0.021242 -0.015929 0.000000
4.360000 0.024544 -0.019954 -0.015929 0.000000
4.362000 0.024544 -0.019843 -0.013693 0.000000
4.364000 0.024544 -0.021630 -0.021831 0.000000
4.366000 0.024544 -0.022559 -0.026210 0.000000
4.368000 0.024544 -0.022387 -0.026210 0.000000
4.370000 0.024544 -0.022287 -0.017766 0.000000
4.372000 0.024544 -0.017494 -0.024087 0.000000
4.374000 0.024544 -0.020573 -0.024864 0.000000
4.376000 0.024544 -0.023587 -0.025397 0.000000
4.378000 0.024544 -0.026394 -0.025397 0.000000
4.380000 0.024544 -0.026266 -0.033319 0.000000
4.382000 0.024544 -0.029694 -0.031042 0.000000
4.384000 0.024544 -0.027880 -0.021333 0.000000
4.386000 0.024544 -0.022401 -0.012684 0.000000
4.388000 0.024544 -0.017976 -0.012684 0.000000
4.390000 0.024544 -0.017866 -0.018778 0.000000
4.392000 0.024544 -0.021598 -0.026195 0.000000
4.394000 0.024544 -0.025384 -0.020310 0.000000
4.396000 0.024544 -0.024091 -0.020310 0.000000
4.398000 0.024544 -0.023968 -0.010261 0.000000
4.400000 0.024544 -0.014690 -0.012986 0.000000
4.402000 0.024544 -0.012626 -0.015147 0.000000
4.404000 0.024544 -0.012947 -0.016979 0.000000
4.406000 0.024544 -0.015571 -0.016979 0.000000
4.408000 0.024544 -0.015483 -0.017781 0.000000
4.410000 0.024544 -0.020427 -0.016218 0.000000
4.412000 0.024544 -0.019208 0.005028 0.000000
4.414000 0.024544 -0.008502 0.005028 0.000000
4.416000 0.024544 -0.008419 -0.002295 0.000000
4.418000 0.024544 -0.003448 -0.008061 0.000000
4.420000 0.024544 -0.005812 -0.030059 0.000000
4.422000 0.024544 -0.016153 -0.031083 0.000000
4.424000 0.024544 -0.023507 -0.031083 0.000000
4.426000 0.024544 -0.023410 -0.015707 0.000000
4.428000 0.024544 -0.019280 0.007115 0.000000
4.430000 0.024544 -0.006620 0.011064 0.000000
4.432000 0.024544 0.001363 0.011064 0.000000
4.434000 0.024544 0.001414 -0.015082 0.000000
4.436000 0.024544 -0.006717 -0.030542 0.000000
4.438000 0.024544 -0.017898 -0.036312 0.000000
4.440000 0.024544 -0.025256 -0.012004 0.000000
4.442000 0.024544 -0.019647 -0.012004 0.000000
4.444000 0.024544 -0.019537 -0.001126 0.000000
4.446000 0.024544 -0.008520 -0.002725 0.000000
4.448000 0.024544 -0.005104 -0.012658 0.000000
4.450000 0.024544 -0.007851 -0.026617 0.000000
4.452000 0.024544 -0.018634 -0.026617 0.000000
4.454000 0.024544 -0.018552 -0.024367 0.000000
4.456000 0.024544 -0.022108 0.001506 0.000000
4.458000 0.024544 -0.011984 0.026116 0.000000
4.460000 0.024544 0.004200 0.026116 0.000000
4.462000 0.024544 0.004266 -0.006820 0.000000
4.464000 0.024544 0.000215 -0.026376 0.000000
4.466000 0.024544 -0.010879 -0.043091 0.000000
4.468000 0.024544 -0.024322 -0.030444 0.000000
4.470000 0.024544 -0.027245 -0.030444 0.000000
4.472000 0.024544 -0.027130 0.002954 0.000000
4.474000 0.024544 -0.012939 0.013963 0.000000
4.476000 0.024544 -0.001070 0.004379 0.000000
4.478000 0.024544 0.002305 0.004379 0.000000
4.480000 0.024544 0.002344 -0.043131 0.000000
4.482000 0.024544 -0.019279 -0.062455 0.000000
4.484000 0.024544 -0.037395 -0.045414 0.000000
4.486000 0.024544 -0.039867 -0.008558 0.000000
4.488000 0.024544 -0.027220 -0.008558 0.000000
4.490000 0.024544 -0.027060 0.001062 0.000000
4.492000 0.024544 -0.012342 -0.017343 0.000000
4.494000 0.024544 -0.013507 -0.036463 0.000000
4.496000 0.024544 -0.022176 -0.036463 0.000000
4.498000 0.024544 -0.022078 -0.048090 0.000000
4.500000 0.024544 -0.035825 -0.026753 0.000000
4.502000 0.024544 -0.032570 -0.001172 0.000000
4.504000 0.024544 -0.019868 0.024212 0.000000
4.506000 0.024544 -0.002315 0.024212 0.000000
4.508000 0.026078 -0.002220 -0.028936 0.000000
4.510000 0.026078 -0.013313 -0.055870 0.000000
4.512000 0.026078 -0.030369 -0.069412 0.000000
4.514000 0.026078 -0.046115 0.000773 0.000000
4.516000 0.026078 -0.029646 0.000773 0.000000
4.518000 0.026078 -0.029473 0.015029 0.000000
4.520000 0.026078 -0.010024 0.014317 0.000000
4.522000 0.026078 -0.000001 -0.002572 0.000000
4.524000 0.026078 -0.000233 -0.002572 0.000000
4.526000 0.026078 -0.000195 -0.060216 0.000000
4.528000 0.026078 -0.028645 -0.072839 0.000000
4.530000 0.026078 -0.046542 -0.039886 0.000000
4.532000 0.026078 -0.043398 0.026736 0.000000
4.534000 0.026078 -0.014676 0.026736 0.000000
4.536000 0.026078 -0.014524 -0.000511 0.000000
4.538000 0.026078 -0.007831 -0.024778 0.000000
4.540000 0.026078 -0.014130 -0.044288 0.000000
4.542000 0.026078 -0.026306 -0.044288 0.000000
4.544000 0.026078 -0.026214 -0.033778 0.000000
4.546000 0.026078 -0.031249 -0.001460 0.000000
4.548000 0.026078 -0.019665 0.024064 0.000000
4.550000 0.026078 -0.002577 0.030066 0.000000
4.552000 0.026078 0.010550 0.030066 0.000000
4.554000 0.026078 0.010591 -0.039654 0.000000
4.556000 0.026078 -0.010564 -0.069243 0.000000
4.558000 0.026078 -0.033397 -0.056220 0.000000
4.560000 0.026078 -0.042597 -0.056220 0.000000
4.562000 0.026078 -0.042446 0.038281 0.000000
4.564000 0.026078 -0.008056 0.044753 0.000000
4.566000 0.026078 0.012349 0.019888 0.000000
4.568000 0.026078 0.015899 -0.010544 0.000000
4.570000 0.026078 0.006730 -0.010544 0.000000
4.572000 0.026078 0.006718 -0.063703 0.000000
4.574000 0.026078 -0.026120 -0.049264 0.000000
4.576000 0.026078 -0.034635 0.007266 0.000000
4.578000 0.026078 -0.018038 0.041072 0.000000
4.580000 0.026078 0.005679 0.041072 0.000000
4.582000 0.026078 0.005753 0.006506 0.000000
4.584000 0.026078 0.006246 -0.042587 0.000000
4.586000 0.026078 -0.012159 -0.060169 0.000000
4.588000 0.026078 -0.030438 -0.060169 0.000000
4.590000 0.026078 -0.030362 -0.016150 0.000000
4.592000 0.026078 -0.025261 0.021045 0.000000
4.594000 0.026078 -0.006912 0.044884 0.000000
4.596000 0.026078 0.013006 -0.019513 0.000000
4.598000 0.026078 0.002839 -0.019513 0.000000
4.600000 0.026078 0.002842 -0.059093 0.000000
4.602000 0.026078 -0.023417 -0.072377 0.000000
4.604000 0.026078 -0.042282 -0.041030 0.000000
4.606000 0.026078 -0.041790 -0.041030 0.000000
4.608000 0.026078 -0.041616 0.046956 0.000000
4.610000 0.026078 -0.003149 0.046371 0.000000
4.612000 0.026078 0.015889 0.008692 0.000000
4.614000 0.026078 0.013551 -0.064332 0.000000
4.616000 0.026078 -0.016167 -0.064332 0.000000
4.618000 0.026078 -0.016154 -0.064113 0.000000
4.620000 0.026078 -0.037239 -0.018682 0.000000
4.622000 0.026078 -0.029458 0.026999 0.000000
4.624000 0.026078 -0.007846 0.026999 0.000000
4.626000 0.026078 -0.007724 0.023312 0.000000
4.628000 0.026078 0.006485 -0.022838 0.000000
4.630000 0.026078 -0.004754 -0.065131 0.000000
4.632000 0.026078 -0.027052 -0.070130 0.000000
4.634000 0.026078 -0.042994 -0.070130 0.000000
4.636000 0.026078 -0.042872 0.006361 0.000000
4.638000 0.026078 -0.022763 0.027794 0.000000
4.640000 0.026078 -0.003532 0.028324 0.000000
4.642000 0.026078 0.009258 -0.043375 0.000000
4.644000 0.026078 -0.008711 -0.043375 0.000000
4.646000 0.026078 -0.008693 -0.087335 0.000000
4.648000 0.026078 -0.042548 -0.084987 0.000000
4.650000 0.026078 -0.058719 -0.011337 0.000000
4.652000 0.026078 -0.040494 -0.011337 0.000000
4.654000 0.026078 -0.040277 0.050679 0.000000
4.656000 0.026078 -0.001781 0.015754 0.000000
4.658000 0.026078 0.004207 -0.029395 0.000000
4.660000 0.026078 -0.007939 -0.068734 0.000000
4.662000 0.026078 -0.031226 -0.068734 0.000000
4.664000 0.026078 -0.031152 -0.057957 0.000000
4.666000 0.026078 -0.042807 -0.008684 0.000000
4.668000 0.026078 -0.029416 0.040983 0.000000
4.670000 0.026078 -0.003327 0.040983 0.000000
4.672000 0.026078 -0.003203 0.000670 0.000000
4.674000 0.026078 -0.000801 -0.057188 0.000000
4.676000 0.026078 -0.022452 -0.094122 0.000000
4.678000 0.026078 -0.049288 -0.006180 0.000000
4.680000 0.026078 -0.034913 -0.006180 0.000000
4.682000 0.026078 -0.034738 0.026645 0.000000
4.684000 0.026078 -0.008802 0.037501 0.000000
4.686000 0.026078 0.008912 0.005109 0.000000
4.688000 0.026078 0.008214 0.005109 0.000000
4.690000 0.026078 0.008226 -0.071857 0.000000
4.692000 0.026078 -0.025378 -0.089622 0.000000
4.694000 0.026078 -0.049604 -0.055018 0.000000
4.696000 0.026078 -0.051288 0.069629 0.000000
4.698000 0.026078 -0.007515 0.069629 0.000000
4.700000 0.026078 -0.007348 0.044876 0.000000
4.702000 0.026078 0.013957 -0.007979 0.000000
4.704000 0.026078 0.005549 -0.059384 0.000000
4.706000 0.026078 -0.017778 -0.065411 0.000000
4.708000 0.026078 -0.036416 -0.065411 0.000000
4.710000 0.026078 -0.036321 -0.008747 0.000000
4.712000 0.026078 -0.024124 0.041233 0.000000
4.714000 0.026078 0.000793 0.029055 0.000000
4.716000 0.026078 0.012192 0.029055 0.000000
4.718000 0.026078 0.012224 -0.019857 0.000000
4.720000 0.026078 -0.001671 -0.077304 0.000000
4.722000 0.026078 -0.030856 -0.078049 0.000000
4.724000 0.026078 -0.048230 0.040044 0.000000
4.726000 0.026078 -0.016509 0.040044 0.000000
4.728000 0.026078 -0.016350 0.062838 0.000000
4.730000 0.026078 0.016459 0.044126 0.000000
4.732000 0.026078 0.026508 -0.004656 0.000000
4.734000 0.026078 0.015583 -0.004656 0.000000
4.736000 0.026078 0.015531 -0.081199 0.000000
4.738000 0.026078 -0.025033 -0.072505 0.000000
4.740000 0.026078 -0.042476 0.003917 0.000000
4.742000 0.026078 -0.024990 0.061289 0.000000
4.744000 0.026078 0.006374 0.061289 0.000000
4.746000 0.026078 0.006470 0.027644 0.000000
4.748000 0.026078 0.015045 -0.034240 0.000000
4.750000 0.026078 -0.003849 -0.081005 0.000000
4.752000 0.026078 -0.031878 -0.081005 0.000000
4.754000 0.026078 -0.031833 -0.019951 0.000000
4.756000 0.026078 -0.026804 0.026057 0.000000
4.758000 0.026078 -0.006314 0.066518 0.000000
4.760000 0.026078 0.020206 -0.005466 0.000000
4.762000 0.026078 0.011821 -0.005466 0.000000
4.764000 0.026078 0.011804 -0.060218 0.000000
4.766000 0.026078 -0.018243 -0.083681 0.000000
4.768000 0.026078 -0.043265 -0.060191 0.000000
4.770000 0.026078 -0.049539 0.074555 0.000000
4.772000 0.026078 -0.005989 0.074555 0.000000
4.774000 0.026078 -0.005832 0.051302 0.000000
4.776000 0.026078 0.017609 0.006598 0.000000
4.778000 0.026078 0.013574 -0.090633 0.000000
4.780000 0.026078 -0.023763 -0.090633 0.000000
4.782000 0.026078 -0.023756 -0.084822 0.000000
4.784000 0.026078 -0.049106 -0.036178 0.000000
4.786000 0.026078 -0.043833 0.027573 0.000000
4.788000 0.026078 -0.017265 0.040134 0.000000
4.790000 0.026078 0.003700 0.040134 0.000000
4.792000 0.026078 0.003782 -0.021112 0.000000
4.794000 0.026078 -0.007278 -0.085007 0.000000
4.796000 0.026078 -0.036673 -0.062338 0.000000
4.798000 0.026078 -0.045984 -0.062338 0.000000
4.800000 0.026078 -0.045836 0.003299 0.000000
4.802000 0.026078 -0.024130 0.051196 0.000000
4.804000 0.026078 0.003645 0.045456 0.000000
4.806000 0.026078 0.018939 -0.041652 0.000000
4.808000 0.026078 -0.001672 -0.041652 0.000000
4.810000 0.026078 -0.001685 -0.092068 0.000000
4.812000 0.026078 -0.039687 -0.089102 0.000000
4.814000 0.026078 -0.058379 -0.020825 0.000000
4.816000 0.026078 -0.044751 -0.020825 0.000000
4.818000 0.026078 -0.044542 0.066061 0.000000
4.820000 0.026078 0.001699 0.033216 0.000000
4.822000 0.026078 0.012609 -0.033333 0.000000
4.824000 0.026078 -0.004106 -0.088172 0.000000
4.826000 0.026078 -0.034540 -0.088172 0.000000
4.828000 0.026078 -0.034482 -0.053375 0.000000
4.830000 0.026078 -0.041677 0.009928 0.000000
4.832000 0.026078 -0.021746 0.061477 0.000000
4.834000 0.026078 0.007702 0.000117 0.000000
4.836000 0.026078 0.005160 0.000117 0.000000
4.838000 0.026078 0.005180 -0.066119 0.000000
4.840000 0.026078 -0.024837 -0.107103 0.000000
4.842000 0.026078 -0.055603 -0.011313 0.000000
4.844000 0.026078 -0.039819 -0.011313 0.000000
4.846000 0.026078 -0.039631 0.054338 0.000000
4.848000 0.026078 0.000169 0.054572 0.000000
4.850000 0.026078 0.020191 0.020208 0.000000
4.852000 0.026078 0.020436 -0.085655 0.000000
4.854000 0.026078 -0.016551 -0.085655 0.000000
4.856000 0.026078 -0.016564 -0.094010 0.000000
4.858000 0.026078 -0.048610 -0.044094 0.000000
4.860000 0.026078 -0.046473 0.080951 0.000000
4.862000 0.026078 -0.000633 0.080951 0.000000
4.864000 0.026078 -0.000484 0.060585 0.000000
4.866000 0.026078 0.023984 -0.020251 0.000000
4.868000 0.026078 0.006917 -0.072019 0.000000
4.870000 0.026078 -0.020707 -0.060744 0.000000
4.872000 0.026078 -0.034547 -0.060744 0.000000
4.874000 0.026078 -0.034456 0.004051 0.000000
4.876000 0.026078 -0.017646 0.061652 0.000000
4.878000 0.026078 0.011395 0.032471 0.000000
4.880000 0.026078 0.018743 0.032471 0.000000
4.882000 0.026078 0.018743 -0.028864 0.000000
4.884000 0.026078 -0.001887 -0.097737 0.000000
4.886000 0.026078 -0.037723 -0.098779 0.000000
4.888000 0.026078 -0.059298 0.046318 0.000000
4.890000 0.024544 -0.021402 0.046318 0.000000
4.892000 0.024544 -0.021220 0.074290 0.000000
4.894000 0.024544 0.017867 0.043368 0.000000
4.896000 0.024544 0.026813 -0.027062 0.000000
4.898000 0.026078 0.007965 -0.082507 0.000000
4.900000 0.026078 -0.023166 -0.082507 0.000000
4.902000 0.024544 -0.023162 -0.053920 0.000000
4.904000 0.024544 -0.035351 0.010959 0.000000
4.906000 0.024544 -0.017707 0.068208 0.000000
4.908000 0.024544 0.012954 0.068208 0.000000
4.910000 0.024544 0.013023 0.018867 0.000000
4.912000 0.024544 0.014521 -0.053319 0.000000
4.914000 0.024544 -0.010907 -0.100214 0.000000
4.916000 0.024544 -0.042420 0.001938 0.000000
4.918000 0.024544 -0.026236 0.001938 0.000000
4.920000 0.024544 -0.026100 0.062925 0.000000
4.922000 0.024544 0.010531 0.074123 0.000000
4.924000 0.024544 0.033281 -0.018408 0.000000
4.926000 0.024544 0.014595 -0.018408 0.000000
4.928000 0.024544 0.014529 -0.087576 0.000000
4.930000 0.024544 -0.027980 -0.099504 0.000000
4.932000 0.024544 -0.054536 -0.049804 0.000000
4.934000 0.024544 -0.052175 0.078625 0.000000
4.936000 0.024544 -0.006499 0.078625 0.000000
4.938000 0.024544 -0.006338 0.051198 0.000000
4.940000 0.024544 0.016279 -0.007948 0.000000
4.942000 0.024544 0.006838 -0.097993 0.000000
4.944000 0.024544 -0.029885 -0.097993 0.000000
4.946000 0.024544 -0.029868 -0.071481 0.000000
4.948000 0.024544 -0.046660 -0.014104 0.000000
4.950000 0.024544 -0.034458 0.042010 0.000000
4.952000 0.024544 -0.007236 0.030912 0.000000
4.954000 0.024544 0.005868 0.030912 0.000000
4.956000 0.024544 0.005917 -0.054002 0.000000
4.958000 0.024544 -0.019927 -0.110242 0.000000
4.960000 0.024544 -0.053069 -0.029923 0.000000
4.962000 0.024544 -0.043449 0.038205 0.000000
4.964000 0.024544 -0.015510 0.038205 0.000000
4.966000 0.024544 -0.015349 0.068447 0.000000
4.968000 0.024544 0.017677 0.040341 0.000000
4.970000 0.024544 0.025230 -0.079246 0.000000
4.972000 0.024544 -0.011184 -0.079246 0.000000
4.974000 0.024544 -0.011230 -0.104598 0.000000
4.976000 0.024544 -0.050096 -0.076991 0.000000
4.978000 0.024544 -0.059837 -0.004043 0.000000
4.980000 0.024544 -0.039301 0.059019 0.000000
4.982000 0.024544 -0.005414 0.059019 0.000000
4.984000 0.024544 -0.005279 0.008216 0.000000
4.986000 0.024544 -0.000988 -0.076926 0.000000
4.988000 0.024544 -0.029686 -0.080029 0.000000
4.990000 0.024544 -0.046417 -0.080029 0.000000
4.992000 0.023010 -0.046310 -0.020681 0.000000
4.994000 0.023010 -0.035249 0.039989 0.000000
4.996000 0.023010 -0.008054 0.059755 0.000000
4.998000 0.023010 0.015263 -0.042544 0.000000
5.000000 0.023010 -0.004788 -0.042544 0.000000
5.002000 0.023010 -0.004798 -0.096239 0.000000
5.004000 0.023010 -0.042333 -0.104288 0.000000
5.006000 0.023010 -0.064895 0.033442 0.000000
5.008000 0.023010 -0.029306 0.033442 0.000000
5.010000 0.023010 -0.029113 0.082056 0.000000
5.012000 0.023010 0.015789 0.053188 0.000000
5.014000 0.023010 0.027829 -0.014089 0.000000
5.016000 0.023010 0.012175 -0.095415 0.000000
5.018000 0.023010 -0.024353 -0.095415 0.000000
5.020000 0.023010 -0.024372 -0.076871 0.000000
5.022000 0.023010 -0.045104 -0.006238 0.000000
5.024000 0.023010 -0.030365 0.074318 0.000000
5.026000 0.023010 0.005582 0.032315 0.000000
5.028000 0.023010 0.013832 0.032315 0.000000
5.030000 0.023010 0.013838 -0.055981 0.000000
5.032000 0.023010 -0.015744 -0.098479 0.000000
5.034000 0.023010 -0.045569 -0.017603 0.000000
5.036000 0.023010 -0.034321 -0.017603 0.000000
5.038000 0.023010 -0.034187 0.041317 0.000000
5.040000 0.021476 -0.002964 0.066673 0.000000
5.042000 0.021476 0.021521 -0.027816 0.000000
5.044000 0.023010 0.003693 -0.079337 0.000000
5.046000 0.023010 -0.024202 -0.079337 0.000000
5.048000 0.023010 -0.024208 -0.093817 0.000000
5.050000 0.021476 -0.051644 -0.053303 0.000000
5.052000 0.021476 -0.051430 0.069919 0.000000
5.054000 0.021476 -0.009537 0.069919 0.000000
5.056000 0.021476 -0.009374 0.065358 0.000000
5.058000 0.021476 0.019421 0.005459 0.000000
5.060000 0.021476 0.013095 -0.074924 0.000000
5.062000 0.021476 -0.017583 -0.067073 0.000000
5.064000 0.021476 -0.032549 -0.067073 0.000000
5.066000 0.021476 -0.032492 -0.005745 0.000000
5.068000 0.021476 -0.020591 0.041332 0.000000
5.070000 0.021476 0.001527 0.033787 0.000000
5.072000 0.021476 0.011366 0.033787 0.000000
5.074000 0.021476 0.011380 -0.037675 0.000000
5.076000 0.021476 -0.009516 -0.089503 0.000000
5.078000 0.021476 -0.038493 -0.080001 0.000000
5.080000 0.021476 -0.052464 0.036718 0.000000
5.082000 0.021476 -0.021850 0.036718 0.000000
5.084000 0.021476 -0.021692 0.059081 0.000000
5.086000 0.021476 0.009936 0.027357 0.000000
5.088000 0.021476 0.014680 -0.081228 0.000000
5.090000 0.021476 -0.017438 -0.087975 0.000000
5.092000 0.021476 -0.040586 -0.087975 0.000000
5.094000 0.021476 -0.040532 -0.057730 0.000000
5.096000 0.021476 -0.046656 0.000974 0.000000
5.098000 0.021476 -0.029254 0.056832 0.000000
5.100000 0.021476 -0.001089 0.056832 0.000000
5.102000 0.021476 -0.000983 -0.002551 0.000000
5.104000 0.021476 -0.003240 -0.072626 0.000000
5.106000 0.021476 -0.028660 -0.070386 0.000000
5.108000 0.021476 -0.041138 -0.010624 0.000000
5.110000 0.021476 -0.030037 -0.010624 0.000000
5.112000 0.019942 -0.029893 0.027192 0.000000
5.114000 0.019942 -0.006977 0.042749 0.000000
5.116000 0.019942 0.009419 -0.029840 0.000000
5.118000 0.019942 -0.004284 -0.029840 0.000000
5.120000 0.019942 -0.004287 -0.078059 0.000000
5.122000 0.019942 -0.034293 -0.081269 0.000000
5.124000 0.019942 -0.050988 0.014975 0.000000
5.126000 0.019942 -0.028534 0.045057 0.000000
5.128000 0.019942 -0.004830 0.045057 0.000000
5.130000 0.019942 -0.004712 0.024854 0.000000
5.132000 0.019942 0.005009 -0.039061 0.000000
5.134000 0.019942 -0.011667 -0.077913 0.000000
5.136000 0.019942 -0.031055 -0.077913 0.000000
5.138000 0.019942 -0.031012 -0.050214 0.000000
5.140000 0.019942 -0.037832 -0.005752 0.000000
5.142000 0.019942 -0.026632 0.021409 0.000000
5.144000 0.019942 -0.011493 -0.003821 0.000000
5.146000 0.019942 -0.010499 -0.003821 0.000000
5.148000 0.019942 -0.010439 -0.056413 0.000000
5.150000 0.019942 -0.028931 -0.087870 0.000000
5.152000 0.019942 -0.049372 -0.015737 0.000000
5.154000 0.019942 -0.036484 0.017815 0.000000
5.156000 0.019942 -0.018920 0.017815 0.000000
5.158000 0.019942 -0.018773 0.027017 0.000000
5.160000 0.019942 -0.001957 -0.001409 0.000000
5.162000 0.019942 -0.003256 -0.062710 0.000000
5.164000 0.019942 -0.021217 -0.062710 0.000000
5.166000 0.019942 -0.021194 -0.060381 0.000000
5.168000 0.019942 -0.035804 -0.029843 0.000000
5.170000 0.018408 -0.033936 0.027844 0.000000
5.172000 0.018408 -0.014773 0.024111 0.000000
5.174000 0.018408 -0.003631 0.024111 0.000000
5.176000 0.018408 -0.003560 -0.027694 0.000000
5.178000 0.018408 -0.014340 -0.058366 0.000000
5.180000 0.018408 -0.028486 -0.026646 0.000000
5.182000 0.018408 -0.025259 -0.026646 0.000000
5.184000 0.018408 -0.025168 -0.003682 0.000000
5.186000 0.018408 -0.016481 0.012601 0.000000
