time ax ay az button
0.000000 -0.000000 0.000000 0.000000 0.000000
0.002000 -0.000000 0.000000 0.000000 0.000000
0.004000 -0.000000 0.000000 0.000000 0.000000
0.006000 -0.000000 0.000000 -0.068693 0.000000
0.008000 -0.000000 -0.068660 -0.068658 0.000000
0.010000 -0.000000 -0.062489 -0.046683 0.000000
0.012000 -0.000000 -0.050439 -0.046683 0.000000
0.014000 -0.000000 -0.050249 -0.033342 0.000000
0.016000 -0.000000 -0.039859 -0.046911 0.000000
0.018000 -0.000000 -0.042649 -0.079569 0.000000
0.020000 -0.000000 -0.049590 -0.079569 0.000000
0.022000 -0.000000 -0.049396 -0.087626 0.000000
0.024000 -0.000000 -0.053201 -0.074763 0.000000
0.026000 -0.000000 -0.054251 -0.080746 0.000000
0.028000 0.001534 -0.053526 -0.079980 0.000000
0.030000 0.001534 -0.052379 -0.079980 0.000000
0.032000 0.001534 -0.052120 -0.062992 0.000000
0.034000 0.001534 -0.049295 -0.064792 0.000000
0.036000 0.001534 -0.049424 -0.082712 0.000000
0.038000 0.001534 -0.051798 -0.105770 0.000000
0.040000 0.001534 -0.055104 -0.105770 0.000000
0.042000 0.001534 -0.054838 -0.104238 0.000000
0.044000 0.001534 -0.054876 -0.111726 0.000000
0.046000 0.001534 -0.056730 -0.114950 0.000000
0.048000 0.001534 -0.057725 -0.114950 0.000000
0.050000 0.001534 -0.057434 -0.076571 0.000000
0.052000 0.001534 -0.049627 -0.075257 0.000000
0.054000 0.001534 -0.048846 -0.071873 0.000000
0.056000 0.001534 -0.049159 -0.067368 0.000000
0.058000 0.001534 -0.050932 -0.067368 0.000000
0.060000 0.001534 -0.050669 -0.076146 0.000000
0.062000 0.001534 -0.051277 -0.097344 0.000000
0.064000 0.001534 -0.055254 -0.103578 0.000000
0.066000 0.001534 -0.059419 -0.103578 0.000000
0.068000 0.001534 -0.059138 -0.088203 0.000000
0.070000 0.001534 -0.058617 -0.090509 0.000000
0.072000 0.001534 -0.059854 -0.085700 0.000000
0.074000 0.001534 -0.060436 -0.065236 0.000000
0.076000 0.001534 -0.058224 -0.065236 0.000000
0.078000 0.001534 -0.057925 -0.071678 0.000000
0.080000 0.001534 -0.056069 -0.082915 0.000000
0.082000 0.001534 -0.057929 -0.087351 0.000000
0.084000 0.001534 -0.059902 -0.084287 0.000000
0.086000 0.001534 -0.059945 -0.084287 0.000000
0.088000 0.001534 -0.059652 -0.088264 0.000000
0.090000 0.001534 -0.056131 -0.084897 0.000000
0.092000 0.001534 -0.054977 -0.071775 0.000000
0.094000 0.001534 -0.053118 -0.071775 0.000000
0.096000 0.001534 -0.052841 -0.054162 0.000000
0.098000 0.001534 -0.044642 -0.057592 0.000000
0.100000 0.001534 -0.043385 -0.060408 0.000000
0.102000 0.001534 -0.043654 -0.062226 0.000000
0.104000 0.001534 -0.045263 -0.062226 0.000000
0.106000 0.001534 -0.045039 -0.075260 0.000000
0.108000 0.001534 -0.047038 -0.083880 0.000000
0.110000 0.001534 -0.049646 -0.094584 0.000000
0.112000 0.001534 -0.053234 -0.094584 0.000000
0.114000 0.001534 -0.052987 -0.084063 0.000000
0.116000 0.001534 -0.051688 -0.083349 0.000000
0.118000 0.001534 -0.053581 -0.069800 0.000000
0.120000 0.001534 -0.053478 -0.048621 0.000000
0.122000 0.001534 -0.052271 -0.048621 0.000000
0.124000 0.001534 -0.052008 -0.046572 0.000000
0.126000 0.001534 -0.049445 -0.053803 0.000000
0.128000 -0.000000 -0.049474 -0.053203 0.000000
0.130000 -0.000000 -0.049639 -0.072540 0.000000
0.132000 -0.000000 -0.053030 -0.072540 0.000000
0.134000 -0.000000 -0.052784 -0.099390 0.000000
0.136000 -0.000000 -0.056281 -0.103837 0.000000
0.138000 -0.000000 -0.059051 -0.119057 0.000000
0.140000 -0.000000 -0.061827 -0.119057 0.000000
0.142000 -0.000000 -0.061539 -0.123029 0.000000
0.144000 -0.000000 -0.062170 -0.125986 0.000000
0.146000 -0.000000 -0.065556 -0.117508 0.000000
0.148000 -0.000000 -0.067377 -0.095914 0.000000
0.150000 -0.000000 -0.065282 -0.095914 0.000000
0.152000 -0.000000 -0.064957 -0.080851 0.000000
0.154000 -0.000000 -0.058555 -0.074503 0.000000
0.156000 -0.000000 -0.055987 -0.061607 0.000000
0.158000 -0.000000 -0.052784 -0.061607 0.000000
0.160000 -0.000000 -0.052500 -0.055706 0.000000
0.162000 -0.000000 -0.048591 -0.057746 0.000000
0.164000 -0.000000 -0.048556 -0.072527 0.000000
0.166000 -0.000000 -0.051913 -0.109353 0.000000
0.168000 -0.000000 -0.062171 -0.109353 0.000000
0.170000 -0.000000 -0.061910 -0.117147 0.000000
0.172000 -0.000000 -0.069127 -0.144876 0.000000
0.174000 -0.000000 -0.077056 -0.131675 0.000000
0.176000 -0.001534 -0.080410 -0.095452 0.000000
0.178000 -0.001534 -0.074580 -0.095452 0.000000
0.180000 -0.001534 -0.074207 -0.073385 0.000000
0.182000 -0.001534 -0.062999 -0.062422 0.000000
0.184000 -0.001534 -0.058488 -0.057276 0.000000
0.186000 -0.001534 -0.058222 -0.057276 0.000000
0.188000 -0.001534 -0.057921 -0.091261 0.000000
0.190000 -0.001534 -0.060448 -0.117506 0.000000
0.192000 -0.001534 -0.066486 -0.134824 0.000000
0.194000 -0.001534 -0.073467 -0.166677 0.000000
0.196000 -0.001534 -0.080857 -0.166677 0.000000
0.198000 -0.001534 -0.080504 -0.134035 0.000000
0.200000 -0.003068 -0.077935 -0.098938 0.000000
0.202000 -0.003068 -0.071468 -0.063440 0.000000
0.204000 -0.003068 -0.061750 -0.063440 0.000000
0.206000 -0.003068 -0.061393 -0.021041 0.000000
0.208000 -0.003068 -0.049917 -0.035886 0.000000
0.210000 -0.003068 -0.050168 -0.048553 0.000000
0.212000 -0.003068 -0.054178 -0.117833 0.000000
0.214000 -0.003068 -0.066675 -0.117833 0.000000
0.216000 -0.003068 -0.066399 -0.138116 0.000000
0.218000 -0.003068 -0.072655 -0.109686 0.000000
0.220000 -0.003068 -0.071426 -0.100462 0.000000
0.222000 -0.003068 -0.068529 -0.100462 0.000000
0.224000 -0.003068 -0.068191 -0.022164 0.000000
0.226000 -0.003068 -0.050269 -0.001980 0.000000
0.228000 -0.003068 -0.041714 -0.000718 0.000000
0.230000 -0.003068 -0.039608 -0.069144 0.000000
0.232000 -0.003068 -0.054866 -0.069144 0.000000
0.234000 -0.003068 -0.054638 -0.113123 0.000000
0.236000 -0.003068 -0.069647 -0.147790 0.000000
0.238000 -0.004602 -0.079358 -0.165695 0.000000
0.240000 -0.004602 -0.082220 -0.112918 0.000000
0.242000 -0.004602 -0.067760 -0.112918 0.000000
0.244000 -0.004602 -0.067402 -0.092370 0.000000
0.246000 -0.004602 -0.052006 -0.051680 0.000000
0.248000 -0.004602 -0.044343 -0.015746 0.000000
0.250000 -0.004602 -0.043485 -0.015746 0.000000
0.252000 -0.004602 -0.043244 -0.031714 0.000000
0.254000 -0.004602 -0.043305 -0.055930 0.000000
0.256000 -0.004602 -0.043913 -0.082998 0.000000
0.258000 -0.006136 -0.047653 -0.116955 0.000000
0.260000 -0.006136 -0.053457 -0.116955 0.000000
0.262000 -0.006136 -0.053234 -0.115209 0.000000
0.264000 -0.006136 -0.052829 -0.098431 0.000000
0.266000 -0.006136 -0.054100 -0.047057 0.000000
0.268000 -0.006136 -0.049442 -0.047057 0.000000
0.270000 -0.006136 -0.049196 -0.040065 0.000000
0.272000 -0.006136 -0.040203 -0.029968 0.000000
0.274000 -0.006136 -0.034017 -0.048265 0.000000
0.276000 -0.006136 -0.033039 -0.086659 0.000000
0.278000 -0.006136 -0.043803 -0.086659 0.000000
0.280000 -0.006136 -0.043632 -0.108686 0.000000
0.282000 -0.007670 -0.054853 -0.124655 0.000000
0.284000 -0.007670 -0.064145 -0.120331 0.000000
0.286000 -0.007670 -0.069978 -0.120331 0.000000
0.288000 -0.007670 -0.069700 -0.099403 0.000000
0.290000 -0.007670 -0.059569 -0.079820 0.000000
0.292000 -0.007670 -0.051998 -0.068996 0.000000
0.294000 -0.007670 -0.048843 -0.068983 0.000000
0.296000 -0.007670 -0.053224 -0.068983 0.000000
0.298000 -0.009204 -0.052968 -0.081210 0.000000
0.300000 -0.009204 -0.057543 -0.073428 0.000000
0.302000 -0.009204 -0.059454 -0.073428 0.000000
0.304000 -0.009204 -0.059189 -0.061217 0.000000
0.306000 -0.009204 -0.053943 -0.075794 0.000000
0.308000 -0.009204 -0.050172 -0.088996 0.000000
0.310000 -0.009204 -0.053182 -0.107385 0.000000
0.312000 -0.009204 -0.060575 -0.114494 0.000000
0.314000 -0.009204 -0.069050 -0.114494 0.000000
0.316000 -0.009204 -0.068747 -0.076921 0.000000
0.318000 -0.009204 -0.063193 -0.035184 0.000000
0.320000 -0.009204 -0.054909 -0.006275 0.000000
0.322000 -0.009204 -0.047595 -0.058485 0.000000
0.324000 -0.009204 -0.055812 -0.058485 0.000000
0.326000 -0.010738 -0.055567 -0.093923 0.000000
0.328000 -0.010738 -0.064530 -0.159981 0.000000
0.330000 -0.010738 -0.077952 -0.184900 0.000000
0.332000 -0.010738 -0.079666 -0.184900 0.000000
0.334000 -0.010738 -0.079312 -0.134715 0.000000
0.336000 -0.010738 -0.066069 -0.122100 0.000000
0.338000 -0.010738 -0.060937 -0.080677 0.000000
0.340000 -0.010738 -0.059158 -0.069833 0.000000
0.342000 -0.010738 -0.064449 -0.069833 0.000000
0.344000 -0.012272 -0.064148 -0.045199 0.000000
0.346000 -0.012272 -0.063964 -0.085499 0.000000
0.348000 -0.012272 -0.068932 -0.159093 0.000000
0.350000 -0.012272 -0.071669 -0.169526 0.000000
0.352000 -0.012272 -0.073644 -0.169526 0.000000
0.354000 -0.012272 -0.073305 -0.169655 0.000000
0.356000 -0.013806 -0.076157 -0.123069 0.000000
0.358000 -0.013806 -0.074206 0.013518 0.000000
0.360000 -0.013806 -0.056789 0.013518 0.000000
0.362000 -0.013806 -0.056453 0.032500 0.000000
0.364000 -0.013806 -0.037413 -0.042000 0.000000
0.366000 -0.013806 -0.039153 -0.083907 0.000000
0.368000 -0.013806 -0.048815 -0.150860 0.000000
0.370000 -0.013806 -0.075056 -0.150860 0.000000
0.372000 -0.013806 -0.074799 -0.100737 0.000000
0.374000 -0.013806 -0.075932 -0.048118 0.000000
0.376000 -0.013806 -0.062000 -0.075554 0.000000
0.378000 -0.013806 -0.053066 -0.075554 0.000000
0.380000 -0.013806 -0.052771 -0.081952 0.000000
0.382000 -0.015340 -0.050364 -0.097445 0.000000
0.384000 -0.015340 -0.060469 -0.036283 0.000000
0.386000 -0.015340 -0.062060 -0.011922 0.000000
0.388000 -0.015340 -0.047679 -0.011922 0.000000
0.390000 -0.015340 -0.047406 -0.086149 0.000000
0.392000 -0.015340 -0.036537 -0.122334 0.000000
0.394000 -0.015340 -0.038570 -0.092899 0.000000
0.396000 -0.015340 -0.053929 -0.092899 0.000000
0.398000 -0.016874 -0.053725 -0.016215 0.000000
0.400000 -0.016874 -0.059397 0.027682 0.000000
0.402000 -0.016874 -0.042028 0.016177 0.000000
0.404000 -0.016874 -0.022479 -0.124587 0.000000
0.406000 -0.016874 -0.022010 -0.124587 0.000000
0.408000 -0.016874 -0.021851 -0.121494 0.000000
0.410000 -0.016874 -0.035460 -0.041789 0.000000
0.412000 -0.016874 -0.047665 0.129366 0.000000
0.414000 -0.016874 -0.033271 -0.032552 0.000000
0.416000 -0.016874 -0.030425 -0.032552 0.000000
0.418000 -0.016874 -0.030259 -0.119500 0.000000
0.420000 -0.016874 -0.019384 -0.169855 0.000000
0.422000 -0.016874 -0.027090 -0.053216 0.000000
0.424000 -0.016874 -0.052503 -0.053216 0.000000
0.426000 -0.016874 -0.052331 0.046367 0.000000
0.428000 -0.016874 -0.055811 0.104751 0.000000
0.430000 -0.016874 -0.029143 -0.070988 0.000000
0.432000 -0.016874 -0.026106 -0.155124 0.000000
0.434000 -0.016874 -0.026189 -0.155124 0.000000
0.436000 -0.018408 -0.026040 -0.111313 0.000000
0.438000 -0.018408 -0.039162 -0.057463 0.000000
0.440000 -0.016874 -0.061256 -0.115984 0.000000
0.442000 -0.016874 -0.058296 -0.115984 0.000000
0.444000 -0.016874 -0.058043 -0.202419 0.000000
0.446000 -0.018408 -0.040819 -0.211114 0.000000
0.448000 -0.018408 -0.029475 -0.127017 0.000000
0.450000 -0.018408 -0.031323 0.091565 0.000000
0.452000 -0.018408 -0.046477 0.091565 0.000000
0.454000 -0.018408 -0.046273 0.138507 0.000000
0.456000 -0.016874 -0.028732 -0.066123 0.000000
0.458000 -0.018408 -0.032820 -0.179463 0.000000
0.460000 -0.018408 -0.026836 -0.179463 0.000000
0.462000 -0.019942 -0.026667 -0.095470 0.000000
0.464000 -0.019942 -0.029662 -0.023378 0.000000
0.466000 -0.018408 -0.053818 0.069369 0.000000
0.468000 -0.018408 -0.052565 -0.167710 0.000000
0.470000 -0.018408 -0.046709 -0.167710 0.000000
0.472000 -0.018408 -0.046453 -0.183019 0.000000
0.474000 -0.018408 -0.023498 -0.094858 0.000000
0.476000 -0.018408 -0.016854 0.067018 0.000000
0.478000 -0.018408 -0.057237 0.075476 0.000000
0.480000 -0.016874 -0.060522 0.075476 0.000000
0.482000 -0.016874 -0.060275 -0.159794 0.000000
0.484000 -0.018408 -0.080664 -0.256544 0.000000
0.486000 -0.018408 -0.080154 -0.111153 0.000000
0.488000 -0.019942 -0.052444 -0.111153 0.000000
0.490000 -0.018408 -0.052072 -0.023394 0.000000
0.492000 -0.018408 -0.049317 0.066864 0.000000
0.494000 -0.016874 -0.062076 -0.087564 0.000000
0.496000 -0.016874 -0.063602 -0.195887 0.000000
0.498000 -0.018408 -0.052612 -0.195887 0.000000
0.500000 -0.018408 -0.052296 -0.149644 0.000000
0.502000 -0.019942 -0.033655 -0.042691 0.000000
0.504000 -0.018408 -0.030929 -0.025562 0.000000
0.506000 -0.016874 -0.067083 -0.025562 0.000000
0.508000 -0.016874 -0.066826 -0.210975 0.000000
0.510000 -0.016874 -0.089180 -0.249366 0.000000
0.512000 -0.018408 -0.093907 -0.173409 0.000000
0.514000 -0.018408 -0.071783 0.011352 0.000000
0.516000 -0.018408 -0.057013 0.011352 0.000000
0.518000 -0.016874 -0.056611 0.055640 0.000000
0.520000 -0.016874 -0.070629 -0.031454 0.000000
0.522000 -0.016874 -0.082506 -0.218726 0.000000
0.524000 -0.016874 -0.077125 -0.218726 0.000000
0.526000 -0.018408 -0.076714 -0.153164 0.000000
0.528000 -0.018408 -0.056172 -0.050879 0.000000
0.530000 -0.016874 -0.044968 0.023590 0.000000
0.532000 -0.016874 -0.044233 -0.153246 0.000000
0.534000 -0.016874 -0.074804 -0.153246 0.000000
0.536000 -0.016874 -0.074495 -0.237794 0.000000
0.538000 -0.016874 -0.083916 -0.184553 0.000000
0.540000 -0.018408 -0.075294 -0.022584 0.000000
0.542000 -0.016874 -0.062169 0.002835 0.000000
0.544000 -0.016874 -0.061359 0.002835 0.000000
0.546000 -0.015340 -0.060989 -0.042361 0.000000
0.548000 -0.015340 -0.073149 -0.116213 0.000000
0.550000 -0.016874 -0.074153 -0.142904 0.000000
0.552000 -0.016874 -0.057354 -0.142904 0.000000
0.554000 -0.016874 -0.056986 -0.070030 0.000000
0.556000 -0.016874 -0.040106 -0.010478 0.000000
0.558000 -0.015340 -0.033521 -0.114178 0.000000
0.560000 -0.015340 -0.051824 -0.134763 0.000000
0.562000 -0.015340 -0.052485 -0.134763 0.000000
0.564000 -0.015340 -0.052198 -0.097367 0.000000
0.566000 -0.016874 -0.039511 -0.037005 0.000000
0.568000 -0.016874 -0.031666 0.018437 0.000000
0.570000 -0.015340 -0.036220 0.018437 0.000000
0.572000 -0.013806 -0.035991 -0.037802 0.000000
0.574000 -0.013806 -0.054701 -0.112612 0.000000
0.576000 -0.015340 -0.066454 -0.136435 0.000000
0.578000 -0.015340 -0.063881 -0.051845 0.000000
0.580000 -0.015340 -0.054237 -0.051845 0.000000
0.582000 -0.013806 -0.053900 0.016785 0.000000
0.584000 -0.013806 -0.038745 0.011797 0.000000
0.586000 -0.012272 -0.033103 -0.063009 0.000000
0.588000 -0.012272 -0.037794 -0.063009 0.000000
0.590000 -0.013806 -0.037551 -0.127577 0.000000
0.592000 -0.013806 -0.043132 -0.108878 0.000000
0.594000 -0.013806 -0.049336 -0.070538 0.000000
0.596000 -0.012272 -0.053238 -0.109067 0.000000
0.598000 -0.012272 -0.061191 -0.109067 0.000000
0.600000 -0.012272 -0.060876 -0.140319 0.000000
0.602000 -0.012272 -0.062107 -0.085866 0.000000
0.604000 -0.012272 -0.050145 -0.058490 0.000000
0.606000 -0.012272 -0.047409 -0.029997 0.000000
0.608000 -0.012272 -0.046821 -0.029997 0.000000
0.610000 -0.010738 -0.046513 -0.045998 0.000000
0.612000 -0.010738 -0.050052 -0.111349 0.000000
0.614000 -0.010738 -0.059684 -0.140443 0.000000
0.616000 -0.010738 -0.054759 -0.140443 0.000000
0.618000 -0.010738 -0.054426 -0.108106 0.000000
0.620000 -0.010738 -0.049122 -0.074021 0.000000
0.622000 -0.010738 -0.050043 -0.079786 0.000000
0.624000 -0.009204 -0.056059 -0.089411 0.000000
0.626000 -0.009204 -0.059163 -0.089411 0.000000
0.628000 -0.009204 -0.058822 -0.059923 0.000000
0.630000 -0.009204 -0.049521 -0.085328 0.000000
0.632000 -0.009204 -0.047994 -0.067174 0.000000
0.634000 -0.009204 -0.055750 -0.067174 0.000000
0.636000 -0.009204 -0.055436 -0.062573 0.000000
0.638000 -0.007670 -0.059074 -0.128776 0.000000
0.640000 -0.007670 -0.066186 -0.111780 0.000000
0.642000 -0.007670 -0.059184 -0.117613 0.000000
0.644000 -0.007670 -0.054342 -0.117613 0.000000
0.646000 -0.007670 -0.053989 -0.091901 0.000000
0.648000 -0.007670 -0.053170 -0.075041 0.000000
0.650000 -0.007670 -0.053256 -0.097981 0.000000
0.652000 -0.007670 -0.057199 -0.065133 0.000000
0.654000 -0.007670 -0.050431 -0.065133 0.000000
0.656000 -0.007670 -0.050094 -0.057816 0.000000
0.658000 -0.007670 -0.044057 -0.056353 0.000000
0.660000 -0.006136 -0.046874 -0.061786 0.000000
0.662000 -0.006136 -0.050861 -0.061786 0.000000
0.664000 -0.006136 -0.050554 -0.091452 0.000000
0.666000 -0.006136 -0.056441 -0.080005 0.000000
0.668000 -0.006136 -0.055685 -0.051312 0.000000
0.670000 -0.006136 -0.048026 -0.035111 0.000000
0.672000 -0.004602 -0.042178 -0.035111 0.000000
0.674000 -0.004602 -0.041864 -0.041060 0.000000
0.676000 -0.004602 -0.041918 -0.041181 0.000000
0.678000 -0.004602 -0.042219 -0.041840 0.000000
0.680000 -0.003068 -0.043012 -0.041840 0.000000
0.682000 -0.003068 -0.042732 -0.024558 0.000000
0.684000 -0.003068 -0.038487 -0.035100 0.000000
0.686000 -0.003068 -0.038522 -0.077794 0.000000
0.688000 -0.003068 -0.043395 -0.092924 0.000000
0.690000 -0.001534 -0.048627 -0.092924 0.000000
0.692000 -0.001534 -0.048336 -0.104327 0.000000
0.694000 -0.001534 -0.052938 -0.074179 0.000000
0.696000 -0.001534 -0.050308 -0.019930 0.000000
0.698000 -0.001534 -0.040383 -0.019930 0.000000
0.700000 -0.000000 -0.040073 -0.022675 0.000000
0.702000 -0.000000 -0.030563 -0.064293 0.000000
0.704000 -0.000000 -0.030117 -0.104605 0.000000
0.706000 -0.000000 -0.037947 -0.098486 0.000000
0.708000 -0.000000 -0.044189 -0.098486 0.000000
0.710000 -0.000000 -0.043923 -0.064245 0.000000
0.712000 0.001534 -0.043098 -0.045835 0.000000
0.714000 0.001534 -0.038516 -0.064988 0.000000
0.716000 0.001534 -0.031305 -0.058597 0.000000
0.718000 0.001534 -0.029764 -0.058597 0.000000
0.720000 0.001534 -0.029517 -0.049480 0.000000
0.722000 0.003068 -0.032740 0.002544 0.000000
0.724000 0.003068 -0.037003 -0.015423 0.000000
0.726000 0.003068 -0.036386 -0.015423 0.000000
0.728000 0.003068 -0.036132 -0.035345 0.000000
0.730000 0.003068 -0.029388 -0.084310 0.000000
0.732000 0.004602 -0.027090 -0.091416 0.000000
0.734000 0.004602 -0.031098 -0.041149 0.000000
0.736000 0.004602 -0.032943 -0.041149 0.000000
0.738000 0.004602 -0.032717 0.010179 0.000000
0.740000 0.006136 -0.030472 -0.025900 0.000000
0.742000 0.006136 -0.023327 -0.075247 0.000000
0.744000 0.006136 -0.021933 -0.075247 0.000000
0.746000 0.006136 -0.021725 -0.101388 0.000000
0.748000 0.006136 -0.028877 -0.113607 0.000000
0.750000 0.006136 -0.041030 -0.037726 0.000000
0.752000 0.007670 -0.043973 -0.016448 0.000000
0.754000 0.007670 -0.037838 -0.016448 0.000000
0.756000 0.007670 -0.037564 -0.027718 0.000000
0.758000 0.007670 -0.021117 -0.053619 0.000000
0.760000 0.007670 -0.011840 -0.083889 0.000000
0.762000 0.007670 -0.022495 -0.083889 0.000000
0.764000 0.009204 -0.022307 -0.067000 0.000000
0.766000 0.009204 -0.037431 0.016976 0.000000
0.768000 0.009204 -0.035693 -0.010592 0.000000
0.770000 0.010738 -0.026600 -0.049023 0.000000
0.772000 0.010738 -0.020823 -0.049023 0.000000
0.774000 0.010738 -0.020605 -0.070316 0.000000
0.776000 0.010738 -0.024312 -0.078550 0.000000
0.778000 0.012272 -0.034470 0.005906 0.000000
0.780000 0.012272 -0.040228 -0.033558 0.000000
0.782000 0.012272 -0.043042 -0.033558 0.000000
0.784000 0.012272 -0.042765 -0.027519 0.000000
0.786000 0.013806 -0.031627 -0.072501 0.000000
0.788000 0.013806 -0.028465 -0.078342 0.000000
0.790000 0.013806 -0.036390 -0.078342 0.000000
0.792000 0.013806 -0.036146 -0.066396 0.000000
0.794000 0.015340 -0.047353 -0.009643 0.000000
0.796000 0.015340 -0.045624 -0.044062 0.000000
0.798000 0.015340 -0.031970 -0.072490 0.000000
0.800000 0.015340 -0.025103 -0.072490 0.000000
0.802000 0.015340 -0.024844 -0.092270 0.000000
0.804000 0.016874 -0.029399 -0.089609 0.000000
0.806000 0.016874 -0.045030 -0.023217 0.000000
0.808000 0.016874 -0.044396 -0.023217 0.000000
0.810000 0.016874 -0.044112 0.003029 0.000000
0.812000 0.018408 -0.032706 0.001115 0.000000
0.814000 0.018408 -0.012212 -0.066016 0.000000
0.816000 0.018408 -0.011908 -0.080052 0.000000
0.818000 0.018408 -0.023886 -0.080052 0.000000
0.820000 0.019942 -0.023704 -0.095332 0.000000
0.822000 0.019942 -0.044550 -0.039505 0.000000
0.824000 0.019942 -0.044810 0.001864 0.000000
0.826000 0.019942 -0.023389 0.001864 0.000000
0.828000 0.019942 -0.023120 -0.010719 0.000000
0.830000 0.021476 -0.003974 -0.029543 0.000000
0.832000 0.021476 -0.005358 -0.041700 0.000000
0.834000 0.021476 -0.024593 -0.014737 0.000000
0.836000 0.023010 -0.033726 -0.014737 0.000000
0.838000 0.023010 -0.033530 0.002123 0.000000
0.840000 0.023010 -0.030733 -0.019439 0.000000
0.842000 0.023010 -0.019971 -0.045190 0.000000
0.844000 0.024544 -0.014601 -0.057929 0.000000
0.846000 0.024544 -0.020479 -0.057929 0.000000
0.848000 0.024544 -0.020297 -0.064436 0.000000
0.850000 0.024544 -0.031327 0.016678 0.000000
0.852000 0.024544 -0.017900 -0.010359 0.000000
0.854000 0.026078 -0.006369 -0.010359 0.000000
0.856000 0.026078 -0.006194 -0.007524 0.000000
0.858000 0.026078 0.003663 -0.013091 0.000000
0.860000 0.026078 0.001955 -0.042711 0.000000
0.862000 0.027612 -0.016515 -0.048360 0.000000
0.864000 0.027612 -0.025560 -0.048360 0.000000
0.866000 0.027612 -0.025404 -0.036558 0.000000
0.868000 0.027612 -0.019969 -0.007004 0.000000
0.870000 0.029146 0.000105 -0.009902 0.000000
0.872000 0.029146 0.001911 -0.009902 0.000000
0.874000 0.029146 0.002035 -0.007835 0.000000
0.876000 0.030680 -0.010839 -0.000000 0.000000
0.878000 0.030680 -0.019848 -0.003650 0.000000
0.880000 0.030680 -0.013107 -0.012369 0.000000
0.882000 0.030680 -0.000677 -0.012369 0.000000
0.884000 0.032214 -0.000537 -0.011927 0.000000
0.886000 0.032214 0.006802 -0.020542 0.000000
0.888000 0.032214 -0.012175 -0.017306 0.000000
0.890000 0.033748 -0.025708 -0.017306 0.000000
0.892000 0.033748 -0.025566 -0.016054 0.000000
0.894000 0.033748 -0.031159 -0.014199 0.000000
0.896000 0.033748 -0.018421 -0.034139 0.000000
0.898000 0.035282 -0.001722 -0.039021 0.000000
0.900000 0.035282 -0.003131 -0.039021 0.000000
0.902000 0.035282 -0.002995 -0.026456 0.000000
0.904000 0.035282 -0.019506 -0.027003 0.000000
0.906000 0.036816 -0.030284 -0.020468 0.000000
0.908000 0.036816 -0.020660 -0.038434 0.000000
0.910000 0.036816 -0.005228 -0.038434 0.000000
0.912000 0.036816 -0.005052 -0.043792 0.000000
0.914000 0.038350 0.007707 -0.041828 0.000000
0.916000 0.038350 -0.010161 -0.043556 0.000000
0.918000 0.038350 -0.027197 -0.043556 0.000000
0.920000 0.038350 -0.027043 -0.014028 0.000000
0.922000 0.039884 -0.034247 0.007818 0.000000
0.924000 0.039884 -0.019888 0.004796 0.000000
0.926000 0.039884 0.004631 -0.025230 0.000000
0.928000 0.041417 0.007230 -0.025230 0.000000
0.930000 0.041417 0.007339 -0.037303 0.000000
0.932000 0.041417 -0.010115 -0.026499 0.000000
0.934000 0.041417 -0.027997 -0.013464 0.000000
0.936000 0.042951 -0.026830 -0.013464 0.000000
0.938000 0.042951 -0.026634 0.000128 0.000000
0.940000 0.042951 -0.009260 0.008446 0.000000
0.942000 0.044485 0.007815 -0.025134 0.000000
0.944000 0.044485 0.000050 -0.042718 0.000000
0.946000 0.044485 -0.016865 -0.042718 0.000000
0.948000 0.044485 -0.016753 -0.042749 0.000000
0.950000 0.046019 -0.034166 -0.004441 0.000000
0.952000 0.046019 -0.020601 -0.002360 0.000000
0.954000 0.046019 -0.006449 -0.021394 0.000000
0.956000 0.046019 0.000513 -0.021394 0.000000
0.958000 0.047553 0.000656 -0.043675 0.000000
0.960000 0.047553 -0.003774 -0.048047 0.000000
0.962000 0.047553 -0.017881 -0.030053 0.000000
0.964000 0.047553 -0.021500 -0.030053 0.000000
0.966000 0.049087 -0.021335 0.014388 0.000000
0.968000 0.049087 -0.011585 0.055564 0.000000
0.970000 0.049087 0.004364 0.026331 0.000000
0.972000 0.049087 0.006998 -0.036699 0.000000
0.974000 0.050621 -0.004315 -0.036699 0.000000
0.976000 0.050621 -0.004229 -0.069704 0.000000
0.978000 0.050621 -0.019779 -0.032145 0.000000
0.980000 0.052155 -0.018342 0.032031 0.000000
0.982000 0.052155 -0.006644 0.032031 0.000000
0.984000 0.052155 -0.006479 0.075074 0.000000
0.986000 0.052155 0.004896 0.092158 0.000000
0.988000 0.053689 0.013523 -0.023758 0.000000
0.990000 0.053689 0.002411 -0.061423 0.000000
0.992000 0.053689 -0.006312 -0.061423 0.000000
0.994000 0.055223 -0.006233 -0.065489 0.000000
0.996000 0.055223 -0.013911 0.030214 0.000000
0.998000 0.055223 -0.006478 0.072594 0.000000
1.000000 0.055223 0.000636 0.078807 0.000000
1.002000 0.056757 0.009258 0.078807 0.000000
1.004000 0.056757 0.009344 0.026792 0.000000
1.006000 0.056757 0.012292 -0.079140 0.000000
1.008000 0.056757 0.009929 -0.058095 0.000000
1.010000 0.058291 0.006002 -0.058095 0.000000
1.012000 0.058291 0.006053 -0.005898 0.000000
1.014000 0.058291 0.003325 0.112537 0.000000
1.016000 0.059825 0.009378 0.086847 0.000000
1.018000 0.059825 0.017174 0.013754 0.000000
1.020000 0.059825 0.022818 0.013754 0.000000
1.022000 0.059825 0.022826 -0.045821 0.000000
1.024000 0.061359 0.021829 -0.049697 0.000000
1.026000 0.061359 0.015155 0.009736 0.000000
1.028000 0.061359 0.010373 0.009736 0.000000
1.030000 0.062893 0.010390 0.093115 0.000000
1.032000 0.062893 0.010205 0.139394 0.000000
1.034000 0.062893 0.019071 0.021827 0.000000
1.036000 0.062893 0.023888 -0.040932 0.000000
1.038000 0.064427 0.020455 -0.040932 0.000000
1.040000 0.064427 0.020439 -0.066236 0.000000
1.042000 0.064427 0.009700 0.007035 0.000000
1.044000 0.065961 0.004515 0.077322 0.000000
1.046000 0.065961 0.006918 0.077322 0.000000
1.048000 0.065961 0.006966 0.102187 0.000000
1.050000 0.065961 0.010600 0.066290 0.000000
1.052000 0.067495 0.015162 -0.052061 0.000000
1.054000 0.067495 0.019405 -0.071590 0.000000
1.056000 0.067495 0.015810 -0.071590 0.000000
1.058000 0.067495 0.015816 -0.039626 0.000000
1.060000 0.069029 0.012278 0.083777 0.000000
1.062000 0.069029 0.014560 0.094920 0.000000
1.064000 0.069029 0.015441 0.049370 0.000000
1.066000 0.069029 0.012896 0.049370 0.000000
1.068000 0.070563 0.012913 0.012502 0.000000
1.070000 0.070563 0.019214 -0.069574 0.000000
1.072000 0.070563 0.021361 -0.035706 0.000000
1.074000 0.070563 0.023414 -0.035706 0.000000
1.076000 0.072097 0.023405 0.022711 0.000000
1.078000 0.072097 0.020562 0.127869 0.000000
1.080000 0.073631 0.015930 0.081004 0.000000
1.082000 0.073631 0.007032 0.034568 0.000000
1.084000 0.073631 0.011200 0.034568 0.000000
1.086000 0.073631 0.011229 -0.014795 0.000000
1.088000 0.073631 0.013367 -0.033513 0.000000
1.090000 0.075165 0.022004 0.002681 0.000000
1.092000 0.075165 0.021309 0.002681 0.000000
1.094000 0.075165 0.021304 0.059551 0.000000
1.096000 0.076699 0.011220 0.092484 0.000000
1.098000 0.076699 0.006590 0.034182 0.000000
1.100000 0.076699 0.006192 -0.002906 0.000000
1.102000 0.076699 0.013627 -0.002906 0.000000
1.104000 0.078233 0.013669 -0.018762 0.000000
1.106000 0.078233 0.023061 -0.007175 0.000000
1.108000 0.078233 0.024383 0.027285 0.000000
1.110000 0.079767 0.013736 0.042632 0.000000
1.112000 0.079767 -0.000386 0.042632 0.000000
1.114000 0.079767 -0.000365 0.044392 0.000000
1.116000 0.079767 -0.013895 -0.001066 0.000000
1.118000 0.081301 0.012012 0.005325 0.000000
1.120000 0.081301 0.032771 0.005325 0.000000
1.122000 0.081301 0.032804 0.014308 0.000000
1.124000 0.081301 0.046261 0.047461 0.000000
1.126000 0.082835 0.030182 0.054909 0.000000
1.128000 0.082835 0.011047 0.033128 0.000000
1.130000 0.082835 -0.008668 0.033128 0.000000
1.132000 0.082835 -0.008644 0.028838 0.000000
1.134000 0.084369 -0.004484 0.026758 0.000000
1.136000 0.084369 0.030415 0.045640 0.000000
1.138000 0.084369 0.051080 0.045640 0.000000
1.140000 0.084369 0.051039 0.048667 0.000000
1.142000 0.085903 0.052848 0.040313 0.000000
1.144000 0.085903 0.021821 0.021278 0.000000
1.146000 0.087437 -0.000978 0.026438 0.000000
1.148000 0.087437 -0.004685 0.026438 0.000000
1.150000 0.087437 -0.004641 0.037183 0.000000
1.152000 0.087437 0.015950 0.058195 0.000000
1.154000 0.087437 0.040801 0.056682 0.000000
1.156000 0.087437 0.049846 0.032673 0.000000
1.158000 0.088971 0.039177 0.032673 0.000000
1.160000 0.088971 0.039051 0.016141 0.000000
1.162000 0.088971 0.018217 0.011779 0.000000
1.164000 0.090505 0.010066 0.048097 0.000000
1.166000 0.090505 0.023181 0.048097 0.000000
1.168000 0.090505 0.023172 0.080144 0.000000
1.170000 0.090505 0.038221 0.110089 0.000000
1.172000 0.090505 0.052459 0.068372 0.000000
1.174000 0.092039 0.047118 0.009326 0.000000
1.176000 0.092039 0.033392 0.009326 0.000000
1.178000 0.092039 0.033253 -0.013419 0.000000
1.180000 0.093573 0.018896 0.048564 0.000000
1.182000 0.093573 0.027076 0.094036 0.000000
1.184000 0.093573 0.037693 0.094036 0.000000
1.186000 0.093573 0.037632 0.136450 0.000000
1.188000 0.095107 0.048880 0.092360 0.000000
1.190000 0.095107 0.048763 0.031673 0.000000
1.192000 0.095107 0.040826 -0.010932 0.000000
1.194000 0.096641 0.031098 -0.010932 0.000000
1.196000 0.096641 0.030971 -0.009546 0.000000
1.198000 0.096641 0.019568 0.093172 0.000000
1.200000 0.096641 0.029263 0.119081 0.000000
1.202000 0.098175 0.038265 0.119081 0.000000
1.204000 0.098175 0.038195 0.109559 0.000000
1.206000 0.098175 0.043487 0.017684 0.000000
1.208000 0.098175 0.041871 -0.025459 0.000000
1.210000 0.099709 0.034897 -0.023610 0.000000
1.212000 0.099709 0.027696 -0.023610 0.000000
1.214000 0.099709 0.027596 0.021456 0.000000
1.216000 0.099709 0.025494 0.121765 0.000000
1.218000 0.101243 0.034182 0.114392 0.000000
1.220000 0.101243 0.039616 0.058973 0.000000
1.222000 0.101243 0.039199 0.058973 0.000000
1.224000 0.101243 0.039096 0.011754 0.000000
1.226000 0.102777 0.036148 -0.018698 0.000000
1.228000 0.102777 0.036697 0.018083 0.000000
1.230000 0.102777 0.038345 0.018083 0.000000
1.232000 0.102777 0.038233 0.070993 0.000000
1.234000 0.104311 0.037445 0.133884 0.000000
1.236000 0.104311 0.036198 0.094189 0.000000
1.238000 0.104311 0.032712 0.046641 0.000000
1.240000 0.104311 0.034453 0.046641 0.000000
1.242000 0.104311 0.034358 0.001434 0.000000
1.244000 0.105845 0.032884 0.010873 0.000000
1.246000 0.105845 0.039497 0.051158 0.000000
1.248000 0.105845 0.040404 0.051158 0.000000
1.250000 0.107379 0.040281 0.093910 0.000000
1.252000 0.107379 0.033576 0.084556 0.000000
1.254000 0.107379 0.023488 0.053555 0.000000
1.256000 0.107379 0.027503 0.024906 0.000000
1.258000 0.107379 0.034467 0.024906 0.000000
1.260000 0.108913 0.034396 0.020266 0.000000
1.262000 0.108913 0.040925 0.061144 0.000000
1.264000 0.108913 0.043699 0.089818 0.000000
1.266000 0.108913 0.039436 0.091275 0.000000
1.268000 0.110447 0.031899 0.091275 0.000000
1.270000 0.110447 0.031773 0.045745 0.000000
1.272000 0.110447 0.029261 0.032408 0.000000
1.274000 0.110447 0.039181 0.052565 0.000000
1.276000 0.110447 0.048840 0.052565 0.000000
1.278000 0.111981 0.048726 0.079662 0.000000
1.280000 0.111981 0.056870 0.120330 0.000000
1.282000 0.111981 0.047822 0.114302 0.000000
1.284000 0.113515 0.037897 0.070057 0.000000
1.286000 0.113515 0.030013 0.070057 0.000000
1.288000 0.113515 0.029883 0.034789 0.000000
1.290000 0.113515 0.038931 0.055068 0.000000
1.292000 0.113515 0.047150 0.094209 0.000000
1.294000 0.113515 0.055998 0.094209 0.000000
1.296000 0.115049 0.055845 0.118537 0.000000
1.298000 0.115049 0.055577 0.093689 0.000000
1.300000 0.116583 0.042778 0.053812 0.000000
1.302000 0.116583 0.034843 0.024595 0.000000
1.304000 0.116583 0.035237 0.024595 0.000000
1.306000 0.116583 0.035108 0.024802 0.000000
1.308000 0.116583 0.038661 0.094287 0.000000
1.310000 0.116583 0.050357 0.125079 0.000000
1.312000 0.118117 0.057092 0.125079 0.000000
1.314000 0.118117 0.056920 0.104436 0.000000
1.316000 0.118117 0.050605 0.033062 0.000000
1.318000 0.118117 0.048130 0.017328 0.000000
1.320000 0.119651 0.049395 0.028446 0.000000
1.322000 0.119651 0.051511 0.028446 0.000000
1.324000 0.119651 0.051327 0.066132 0.000000
1.326000 0.119651 0.054374 0.164376 0.000000
1.328000 0.119651 0.059357 0.144382 0.000000
1.330000 0.119651 0.059850 0.087643 0.000000
1.332000 0.121184 0.055647 0.087643 0.000000
1.334000 0.121184 0.055416 0.019581 0.000000
1.336000 0.121184 0.056333 0.032694 0.000000
1.338000 0.121184 0.058662 0.068431 0.000000
1.340000 0.121184 0.060731 0.068431 0.000000
1.342000 0.122718 0.060502 0.117646 0.000000
1.344000 0.122718 0.058573 0.169434 0.000000
1.346000 0.122718 0.052645 0.115816 0.000000
1.348000 0.122718 0.046207 0.062810 0.000000
1.350000 0.124252 0.050199 0.062810 0.000000
1.352000 0.124252 0.050002 0.035582 0.000000
1.354000 0.124252 0.059292 0.055769 0.000000
1.356000 0.124252 0.063887 0.090391 0.000000
1.358000 0.124252 0.062297 0.090391 0.000000
1.360000 0.124252 0.062052 0.126465 0.000000
1.362000 0.125786 0.054422 0.102357 0.000000
1.364000 0.125786 0.040296 0.070199 0.000000
1.366000 0.125786 0.044231 0.051328 0.000000
1.368000 0.125786 0.055750 0.051328 0.000000
1.370000 0.127320 0.055563 0.049487 0.000000
1.372000 0.127320 0.065628 0.104102 0.000000
1.374000 0.127320 0.070452 0.129177 0.000000
1.376000 0.127320 0.064954 0.129177 0.000000
1.378000 0.127320 0.064681 0.117463 0.000000
1.380000 0.128854 0.049329 0.054505 0.000000
1.382000 0.128854 0.034140 0.059777 0.000000
1.384000 0.128854 0.045612 0.067245 0.000000
1.386000 0.128854 0.062923 0.067245 0.000000
1.388000 0.128854 0.062733 0.100383 0.000000
1.390000 0.130388 0.078932 0.126053 0.000000
1.392000 0.130388 0.070058 0.137301 0.000000
1.394000 0.130388 0.057983 0.081062 0.000000
1.396000 0.130388 0.040913 0.081062 0.000000
1.398000 0.130388 0.040686 0.034832 0.000000
1.400000 0.130388 0.036659 0.055072 0.000000
1.402000 0.131922 0.052168 0.083514 0.000000
1.404000 0.131922 0.067627 0.083514 0.000000
1.406000 0.131922 0.067415 0.116248 0.000000
1.408000 0.131922 0.077074 0.107520 0.000000
1.410000 0.133456 0.060588 0.069862 0.000000
1.412000 0.133456 0.044167 0.030797 0.000000
1.414000 0.133456 0.031565 0.030797 0.000000
1.416000 0.133456 0.031390 0.057271 0.000000
1.418000 0.133456 0.048424 0.096386 0.000000
1.420000 0.133456 0.063192 0.136771 0.000000
1.422000 0.133456 0.076375 0.136771 0.000000
1.424000 0.134990 0.076118 0.117504 0.000000
1.426000 0.134990 0.069840 0.060787 0.000000
1.428000 0.134990 0.057963 0.036634 0.000000
1.430000 0.134990 0.050818 0.040275 0.000000
1.432000 0.134990 0.050210 0.040275 0.000000
1.434000 0.134990 0.050001 0.145793 0.000000
1.436000 0.134990 0.062324 0.179249 0.000000
1.438000 0.136524 0.073330 0.161213 0.000000
1.440000 0.136524 0.075974 0.106583 0.000000
1.442000 0.136524 0.071823 0.106583 0.000000
1.444000 0.136524 0.071495 0.033304 0.000000
1.446000 0.136524 0.062453 0.047298 0.000000
1.448000 0.136524 0.060076 0.085872 0.000000
1.450000 0.136524 0.059672 0.085872 0.000000
1.452000 0.138058 0.059420 0.147399 0.000000
1.454000 0.138058 0.059651 0.163834 0.000000
1.456000 0.138058 0.063256 0.112234 0.000000
1.458000 0.138058 0.066295 0.066805 0.000000
1.460000 0.139592 0.067613 0.066805 0.000000
1.462000 0.139592 0.067319 0.054102 0.000000
1.464000 0.139592 0.064473 0.091704 0.000000
1.466000 0.139592 0.064802 0.091704 0.000000
1.468000 0.139592 0.064519 0.140415 0.000000
1.470000 0.139592 0.062081 0.153728 0.000000
1.472000 0.139592 0.063544 0.107605 0.000000
1.474000 0.139592 0.067708 0.081412 0.000000
1.476000 0.141126 0.074150 0.073185 0.000000
1.478000 0.141126 0.077442 0.073185 0.000000
1.480000 0.141126 0.077115 0.119110 0.000000
1.482000 0.141126 0.075835 0.146891 0.000000
1.484000 0.141126 0.076121 0.153611 0.000000
1.486000 0.141126 0.072497 0.153611 0.000000
1.488000 0.141126 0.072169 0.116016 0.000000
1.490000 0.141126 0.056961 0.071213 0.000000
1.492000 0.142660 0.064227 0.087775 0.000000
1.494000 0.142660 0.074598 0.106170 0.000000
1.496000 0.142660 0.083874 0.106170 0.000000
1.498000 0.142660 0.083539 0.156776 0.000000
1.500000 0.142660 0.081708 0.158836 0.000000
1.502000 0.142660 0.077004 0.105395 0.000000
1.504000 0.142660 0.062682 0.071880 0.000000
1.506000 0.142660 0.053036 0.071880 0.000000
1.508000 0.144194 0.052750 0.078678 0.000000
1.510000 0.144194 0.068986 0.107454 0.000000
1.512000 0.144194 0.083689 0.124529 0.000000
1.514000 0.144194 0.093720 0.124529 0.000000
1.516000 0.144194 0.093347 0.121952 0.000000
1.518000 0.144194 0.078329 0.088939 0.000000
1.520000 0.144194 0.065269 0.059870 0.000000
1.522000 0.144194 0.054376 0.049202 0.000000
1.524000 0.144194 0.053175 0.049202 0.000000
1.526000 0.145728 0.052917 0.128486 0.000000
1.528000 0.145728 0.077727 0.158819 0.000000
1.530000 0.145728 0.092480 0.155669 0.000000
1.532000 0.145728 0.093768 0.155669 0.000000
1.534000 0.145728 0.093365 0.122620 0.000000
1.536000 0.145728 0.076943 0.044408 0.000000
1.538000 0.145728 0.062500 0.047572 0.000000
1.540000 0.145728 0.058696 0.091981 0.000000
1.542000 0.145728 0.066296 0.091981 0.000000
1.544000 0.147262 0.066013 0.194453 0.000000
1.546000 0.147262 0.077978 0.188549 0.000000
1.548000 0.147262 0.081476 0.130740 0.000000
1.550000 0.147262 0.075334 0.130740 0.000000
1.552000 0.147262 0.074968 0.067307 0.000000
1.554000 0.147262 0.061427 0.032703 0.000000
1.556000 0.147262 0.061552 0.070754 0.000000
1.558000 0.147262 0.065118 0.135959 0.000000
1.560000 0.147262 0.071024 0.135959 0.000000
1.562000 0.148796 0.070727 0.178565 0.000000
1.564000 0.148796 0.069037 0.130867 0.000000
1.566000 0.148796 0.069987 0.069530 0.000000
1.568000 0.148796 0.069500 0.037325 0.000000
1.570000 0.148796 0.067417 0.037325 0.000000
1.572000 0.148796 0.067094 0.081435 0.000000
1.574000 0.148796 0.066822 0.136589 0.000000
1.576000 0.148796 0.069387 0.167536 0.000000
1.578000 0.148796 0.071684 0.167536 0.000000
1.580000 0.148796 0.071368 0.116062 0.000000
1.582000 0.148796 0.066242 0.078574 0.000000
1.584000 0.148796 0.071813 0.064521 0.000000
1.586000 0.148796 0.075485 0.079257 0.000000
1.588000 0.148796 0.077830 0.079257 0.000000
1.590000 0.150330 0.077483 0.158207 0.000000
1.592000 0.150330 0.071072 0.174363 0.000000
1.594000 0.150330 0.068060 0.142288 0.000000
1.596000 0.150330 0.062724 0.142288 0.000000
1.598000 0.150330 0.062408 0.079679 0.000000
1.600000 0.150330 0.066554 0.073309 0.000000
1.602000 0.150330 0.072793 0.090045 0.000000
1.604000 0.150330 0.078891 0.121936 0.000000
1.606000 0.150330 0.083013 0.121936 0.000000
1.608000 0.150330 0.082647 0.154593 0.000000
1.610000 0.150330 0.069076 0.117314 0.000000
1.612000 0.150330 0.059576 0.096314 0.000000
1.614000 0.150330 0.056691 0.096314 0.000000
1.616000 0.150330 0.056393 0.083870 0.000000
1.618000 0.150330 0.061424 0.115475 0.000000
1.620000 0.150330 0.081325 0.134178 0.000000
1.622000 0.150330 0.092419 0.139161 0.000000
1.624000 0.151864 0.093549 0.139161 0.000000
1.626000 0.151864 0.093128 0.098037 0.000000
1.628000 0.151864 0.070155 0.084672 0.000000
1.630000 0.151864 0.063575 0.090097 0.000000
1.632000 0.151864 0.066702 0.129951 0.000000
1.634000 0.151864 0.079536 0.129951 0.000000
1.636000 0.151864 0.079199 0.180737 0.000000
1.638000 0.151864 0.093994 0.162135 0.000000
1.640000 0.151864 0.095794 0.113334 0.000000
1.642000 0.151864 0.084216 0.113334 0.000000
1.644000 0.151864 0.083770 0.065770 0.000000
1.646000 0.151864 0.063497 0.090526 0.000000
1.648000 0.151864 0.065358 0.090526 0.000000
1.650000 0.151864 0.065016 0.140062 0.000000
1.652000 0.151864 0.076673 0.181400 0.000000
1.654000 0.151864 0.089703 0.175854 0.000000
1.656000 0.151864 0.091096 0.107837 0.000000
1.658000 0.151864 0.081521 0.056893 0.000000
1.660000 0.151864 0.070086 0.056893 0.000000
1.662000 0.151864 0.069685 0.071651 0.000000
1.664000 0.151864 0.064577 0.131414 0.000000
1.666000 0.151864 0.073815 0.181867 0.000000
1.668000 0.151864 0.085945 0.178969 0.000000
1.670000 0.151864 0.094184 0.178969 0.000000
1.672000 0.151864 0.093778 0.100850 0.000000
1.674000 0.151864 0.082607 0.050582 0.000000
1.676000 0.151864 0.074922 0.047135 0.000000
1.678000 0.151864 0.069830 0.047135 0.000000
1.680000 0.151864 0.069446 0.143625 0.000000
1.682000 0.151864 0.074857 0.196471 0.000000
1.684000 0.151864 0.084745 0.186881 0.000000
1.686000 0.151864 0.088372 0.125083 0.000000
1.688000 0.151864 0.084609 0.125083 0.000000
1.690000 0.151864 0.084192 0.049016 0.000000
1.692000 0.151864 0.078610 0.057904 0.000000
1.694000 0.151864 0.078259 0.103525 0.000000
1.696000 0.151864 0.080503 0.103525 0.000000
1.698000 0.151864 0.080106 0.195933 0.000000
1.700000 0.151864 0.077306 0.189418 0.000000
1.702000 0.151864 0.077706 0.130048 0.000000
1.704000 0.151864 0.073918 0.130048 0.000000
1.706000 0.151864 0.073537 0.075466 0.000000
1.708000 0.151864 0.068843 0.059794 0.000000
1.710000 0.151864 0.075779 0.090707 0.000000
1.712000 0.151864 0.079828 0.136543 0.000000
1.714000 0.151864 0.081394 0.155822 0.000000
1.716000 0.151864 0.079332 0.155822 0.000000
1.718000 0.151864 0.078931 0.112275 0.000000
1.720000 0.151864 0.065055 0.077988 0.000000
1.722000 0.151864 0.066156 0.079105 0.000000
1.724000 0.151864 0.072247 0.079105 0.000000
1.726000 0.151864 0.071899 0.118371 0.000000
1.728000 0.151864 0.079987 0.148229 0.000000
1.730000 0.151864 0.082825 0.138198 0.000000
1.732000 0.151864 0.078382 0.108209 0.000000
1.734000 0.151864 0.070003 0.108209 0.000000
1.736000 0.151864 0.069611 0.090050 0.000000
1.738000 0.151864 0.067606 0.114821 0.000000
1.740000 0.151864 0.078179 0.140966 0.000000
1.742000 0.151864 0.088808 0.140966 0.000000
1.744000 0.151864 0.088416 0.150432 0.000000
1.746000 0.151864 0.083133 0.127922 0.000000
1.748000 0.151864 0.074448 0.104611 0.000000
1.750000 0.151864 0.065409 0.087596 0.000000
1.752000 0.151864 0.061435 0.087596 0.000000
1.754000 0.151864 0.061082 0.127922 0.000000
1.756000 0.151864 0.071935 0.163573 0.000000
1.758000 0.151864 0.085070 0.160768 0.000000
1.760000 0.151864 0.092740 0.160768 0.000000
1.762000 0.151864 0.092323 0.083029 0.000000
1.764000 0.151864 0.074086 0.065237 0.000000
1.766000 0.151864 0.064224 0.083540 0.000000
1.768000 0.150330 0.061661 0.128772 0.000000
1.770000 0.150330 0.068226 0.128772 0.000000
1.772000 0.150330 0.067886 0.179674 0.000000
1.774000 0.150330 0.080884 0.154463 0.000000
1.776000 0.150330 0.089065 0.083335 0.000000
1.778000 0.150330 0.084711 0.044915 0.000000
1.780000 0.150330 0.075854 0.044915 0.000000
1.782000 0.150330 0.075423 0.088148 0.000000
1.784000 0.150330 0.068760 0.157536 0.000000
1.786000 0.150330 0.076118 0.214512 0.000000
1.788000 0.150330 0.089019 0.214512 0.000000
1.790000 0.150330 0.088623 0.167077 0.000000
1.792000 0.150330 0.090244 0.088942 0.000000
1.794000 0.148796 0.085055 0.036447 0.000000
1.796000 0.148796 0.075031 0.042789 0.000000
1.798000 0.148796 0.067944 0.042789 0.000000
1.800000 0.148796 0.067532 0.172247 0.000000
1.802000 0.148796 0.071052 0.221504 0.000000
1.804000 0.148796 0.081602 0.203093 0.000000
1.806000 0.148796 0.089314 0.203093 0.000000
1.808000 0.148796 0.088903 0.078304 0.000000
1.810000 0.148796 0.083133 0.026130 0.000000
1.812000 0.148796 0.074654 0.043748 0.000000
1.814000 0.148796 0.068634 0.105110 0.000000
1.816000 0.148796 0.068490 0.105110 0.000000
1.818000 0.148796 0.068103 0.207584 0.000000
1.820000 0.148796 0.071592 0.178675 0.000000
1.822000 0.147262 0.076821 0.178675 0.000000
1.824000 0.147262 0.076440 0.107685 0.000000
1.826000 0.147262 0.074776 0.025313 0.000000
1.828000 0.147262 0.075726 0.057842 0.000000
1.830000 0.147262 0.077108 0.125380 0.000000
1.832000 0.147262 0.080099 0.186858 0.000000
1.834000 0.147262 0.084004 0.186858 0.000000
1.836000 0.147262 0.083579 0.158002 0.000000
1.838000 0.147262 0.072335 0.108922 0.000000
1.840000 0.145728 0.070924 0.068683 0.000000
1.842000 0.145728 0.069404 0.074550 0.000000
1.844000 0.145728 0.074529 0.074550 0.000000
1.846000 0.145728 0.074146 0.129902 0.000000
1.848000 0.145728 0.077288 0.172103 0.000000
1.850000 0.145728 0.080140 0.156240 0.000000
1.852000 0.145728 0.076476 0.156240 0.000000
1.854000 0.145728 0.076056 0.101131 0.000000
1.856000 0.145728 0.065868 0.085054 0.000000
1.858000 0.144194 0.067155 0.086778 0.000000
1.860000 0.144194 0.071092 0.107546 0.000000
1.862000 0.144194 0.072882 0.107546 0.000000
1.864000 0.144194 0.072500 0.111931 0.000000
1.866000 0.144194 0.064542 0.100414 0.000000
1.868000 0.144194 0.059146 0.097867 0.000000
1.870000 0.144194 0.058038 0.097867 0.000000
1.872000 0.144194 0.057693 0.106999 0.000000
1.874000 0.142660 0.066252 0.118544 0.000000
1.876000 0.142660 0.076702 0.122303 0.000000
1.878000 0.142660 0.083434 0.083120 0.000000
1.880000 0.142660 0.073119 0.083120 0.000000
1.882000 0.142660 0.072702 0.078698 0.000000
1.884000 0.142660 0.056984 0.092619 0.000000
1.886000 0.142660 0.054643 0.114001 0.000000
1.888000 0.142660 0.061072 0.114001 0.000000
1.890000 0.141126 0.060741 0.149744 0.000000
1.892000 0.141126 0.076861 0.127992 0.000000
1.894000 0.141126 0.085456 0.074511 0.000000
1.896000 0.141126 0.078918 0.060932 0.000000
1.898000 0.141126 0.064248 0.060932 0.000000
1.900000 0.141126 0.063833 0.109756 0.000000
1.902000 0.141126 0.056777 0.166518 0.000000
1.904000 0.139592 0.065123 0.188585 0.000000
1.906000 0.139592 0.076957 0.188585 0.000000
1.908000 0.139592 0.076591 0.099053 0.000000
1.910000 0.139592 0.078586 0.029208 0.000000
1.912000 0.139592 0.069790 0.018667 0.000000
1.914000 0.139592 0.058706 0.048122 0.000000
1.916000 0.139592 0.050614 0.048122 0.000000
1.918000 0.138058 0.050265 0.196643 0.000000
1.920000 0.138058 0.059339 0.215147 0.000000
1.922000 0.138058 0.074310 0.157041 0.000000
1.924000 0.138058 0.084389 0.016073 0.000000
1.926000 0.138058 0.076600 0.016073 0.000000
1.928000 0.136524 0.076176 0.016367 0.000000
1.930000 0.136524 0.061284 0.075108 0.000000
1.932000 0.136524 0.057974 0.075108 0.000000
1.934000 0.136524 0.057603 0.156992 0.000000
1.936000 0.136524 0.063651 0.212032 0.000000
1.938000 0.136524 0.074269 0.139168 0.000000
1.940000 0.134990 0.077644 0.060827 0.000000
1.942000 0.134990 0.074271 0.035438 0.000000
1.944000 0.134990 0.068740 0.035438 0.000000
1.946000 0.134990 0.068334 0.116748 0.000000
1.948000 0.134990 0.067410 0.197321 0.000000
1.950000 0.134990 0.075691 0.215567 0.000000
1.952000 0.134990 0.080799 0.215567 0.000000
1.954000 0.133456 0.080386 0.090736 0.000000
1.956000 0.133456 0.070726 0.031027 0.000000
1.958000 0.133456 0.066168 0.021303 0.000000
1.960000 0.133456 0.062267 0.142732 0.000000
1.962000 0.131922 0.069244 0.142732 0.000000
1.964000 0.131922 0.068872 0.209706 0.000000
1.966000 0.131922 0.075369 0.197547 0.000000
1.968000 0.131922 0.079445 0.127453 0.000000
1.970000 0.131922 0.076856 0.127453 0.000000
1.972000 0.131922 0.076421 0.012978 0.000000
1.974000 0.130388 0.068540 0.033583 0.000000
1.976000 0.130388 0.066488 0.104075 0.000000
1.978000 0.130388 0.070322 0.176350 0.000000
1.980000 0.130388 0.074843 0.176350 0.000000
1.982000 0.130388 0.074445 0.127273 0.000000
1.984000 0.130388 0.067126 0.073205 0.000000
1.986000 0.128854 0.064355 0.035376 0.000000
1.988000 0.128854 0.061290 0.035376 0.000000
1.990000 0.128854 0.060903 0.092472 0.000000
1.992000 0.128854 0.065811 0.163547 0.000000
1.994000 0.127320 0.075062 0.181640 0.000000
1.996000 0.127320 0.080138 0.181640 0.000000
1.998000 0.127320 0.079733 0.148209 0.000000
2.000000 0.127320 0.072147 0.033139 0.000000
2.002000 0.127320 0.062725 0.023630 0.000000
2.004000 0.127320 0.058460 0.023630 0.000000
2.006000 0.125786 0.058074 0.073447 0.000000
2.008000 0.125786 0.058971 0.176732 0.000000
2.010000 0.125786 0.067208 0.165987 0.000000
2.012000 0.125786 0.070563 0.098122 0.000000
2.014000 0.124252 0.065484 0.041570 0.000000
2.016000 0.124252 0.057629 0.041570 0.000000
2.018000 0.124252 0.057250 0.035943 0.000000
2.020000 0.124252 0.053595 0.087652 0.000000
2.022000 0.124252 0.057745 0.148321 0.000000
2.024000 0.122718 0.066103 0.107918 0.000000
2.026000 0.122718 0.065017 0.107918 0.000000
2.028000 0.122718 0.064650 0.066102 0.000000
2.030000 0.122718 0.057360 0.044686 0.000000
2.032000 0.121184 0.053654 0.044323 0.000000
2.034000 0.121184 0.051082 0.044323 0.000000
2.036000 0.121184 0.050747 0.139187 0.000000
2.038000 0.121184 0.056077 0.139974 0.000000
2.040000 0.119651 0.061088 0.139974 0.000000
2.042000 0.119651 0.060755 0.114481 0.000000
2.044000 0.119651 0.059571 0.062825 0.000000
2.046000 0.119651 0.057481 0.064100 0.000000
2.048000 0.119651 0.056060 0.089822 0.000000
2.050000 0.118117 0.057250 0.123646 0.000000
2.052000 0.118117 0.059950 0.112600 0.000000
2.054000 0.118117 0.058286 0.112600 0.000000
2.056000 0.118117 0.057938 0.082509 0.000000
2.058000 0.118117 0.052782 0.065759 0.000000
2.060000 0.116583 0.051326 0.085041 0.000000
2.062000 0.116583 0.053894 0.085041 0.000000
2.064000 0.116583 0.053565 0.121207 0.000000
2.066000 0.115049 0.056365 0.115348 0.000000
2.068000 0.115049 0.057161 0.115348 0.000000
2.070000 0.115049 0.056828 0.085410 0.000000
2.072000 0.115049 0.050918 0.065145 0.000000
2.074000 0.115049 0.052818 0.069880 0.000000
2.076000 0.113515 0.054724 0.105737 0.000000
2.078000 0.113515 0.059436 0.129316 0.000000
2.080000 0.113515 0.063745 0.129316 0.000000
2.082000 0.113515 0.063389 0.087024 0.000000
2.084000 0.111981 0.056361 0.065573 0.000000
2.086000 0.111981 0.054775 0.053310 0.000000
2.088000 0.111981 0.053259 0.053310 0.000000
2.090000 0.111981 0.052919 0.105464 0.000000
2.092000 0.110447 0.058228 0.128004 0.000000
2.094000 0.110447 0.063737 0.116522 0.000000
2.096000 0.110447 0.065172 0.101955 0.000000
2.098000 0.110447 0.064298 0.101955 0.000000
2.100000 0.108913 0.063922 0.058449 0.000000
2.102000 0.108913 0.055392 0.078043 0.000000
2.104000 0.108913 0.054775 0.117442 0.000000
2.106000 0.108913 0.059047 0.117442 0.000000
2.108000 0.108913 0.058695 0.115344 0.000000
2.110000 0.107379 0.056969 0.083573 0.000000
2.112000 0.107379 0.055838 0.058104 0.000000
2.114000 0.107379 0.053486 0.058104 0.000000
2.116000 0.105845 0.053145 0.052823 0.000000
2.118000 0.105845 0.048623 0.117520 0.000000
2.120000 0.105845 0.055181 0.128259 0.000000
2.122000 0.105845 0.060239 0.128259 0.000000
2.124000 0.105845 0.059897 0.111727 0.000000
2.126000 0.104311 0.057928 0.046041 0.000000
2.128000 0.104311 0.053515 0.040708 0.000000
2.130000 0.104311 0.050128 0.068699 0.000000
2.132000 0.102777 0.050959 0.108093 0.000000
2.134000 0.102777 0.056328 0.107723 0.000000
2.136000 0.102777 0.057588 0.107723 0.000000
2.138000 0.102777 0.057249 0.064228 0.000000
2.140000 0.102777 0.051519 0.037853 0.000000
2.142000 0.101243 0.047846 0.074862 0.000000
2.144000 0.101243 0.049077 0.074862 0.000000
2.146000 0.101243 0.048760 0.120414 0.000000
2.148000 0.099709 0.052435 0.146473 0.000000
2.150000 0.099709 0.058947 0.146473 0.000000
2.152000 0.099709 0.058621 0.109249 0.000000
2.154000 0.099709 0.054713 0.016702 0.000000
2.156000 0.099709 0.046687 0.024139 0.000000
2.158000 0.098175 0.042431 0.066930 0.000000
2.160000 0.098175 0.043062 0.152649 0.000000
2.162000 0.098175 0.051912 0.152649 0.000000
2.164000 0.098175 0.051613 0.117109 0.000000
2.166000 0.096641 0.050887 0.056647 0.000000
2.168000 0.096641 0.046940 0.003142 0.000000
2.170000 0.096641 0.039828 0.003142 0.000000
2.172000 0.095107 0.039529 0.040342 0.000000
2.174000 0.095107 0.036640 0.102887 0.000000
2.176000 0.095107 0.043256 0.143988 0.000000
2.178000 0.095107 0.052259 0.143988 0.000000
2.180000 0.093573 0.051970 0.110609 0.000000
2.182000 0.093573 0.051111 -0.000114 0.000000
2.184000 0.093573 0.043667 -0.000573 0.000000
2.186000 0.093573 0.037368 0.041631 0.000000
2.188000 0.092039 0.036982 0.144532 0.000000
2.190000 0.092039 0.047273 0.144532 0.000000
2.192000 0.092039 0.046999 0.131490 0.000000
2.194000 0.092039 0.048901 0.059896 0.000000
2.196000 0.090505 0.046229 0.011209 0.000000
2.198000 0.090505 0.041740 0.011209 0.000000
2.200000 0.090505 0.041441 0.047936 0.000000
2.202000 0.088971 0.038631 0.108581 0.000000
2.204000 0.088971 0.045056 0.151852 0.000000
2.206000 0.088971 0.053143 0.049374 0.000000
2.208000 0.088971 0.044686 0.049374 0.000000
2.210000 0.087437 0.044379 0.000834 0.000000
2.212000 0.087437 0.034045 0.008175 0.000000
2.214000 0.087437 0.029600 0.055977 0.000000
2.216000 0.087437 0.031251 0.055977 0.000000
2.218000 0.085903 0.031012 0.140301 0.000000
2.220000 0.085903 0.040264 0.123754 0.000000
2.222000 0.085903 0.044144 0.038530 0.000000
2.224000 0.084369 0.039250 0.038530 0.000000
2.226000 0.084369 0.038978 -0.002282 0.000000
2.228000 0.084369 0.032859 0.052029 0.000000
2.230000 0.084369 0.034586 0.129821 0.000000
2.232000 0.082835 0.046075 0.156979 0.000000
2.234000 0.082835 0.054888 0.156979 0.000000
2.236000 0.082835 0.054597 0.039277 0.000000
2.238000 0.081301 0.043105 -0.010546 0.000000
2.240000 0.081301 0.035386 -0.008077 0.000000
2.242000 0.081301 0.028495 -0.008077 0.000000
2.244000 0.081301 0.028233 0.123962 0.000000
2.246000 0.079767 0.041135 0.164318 0.000000
2.248000 0.079767 0.050798 0.129060 0.000000
2.250000 0.079767 0.052596 0.042908 0.000000
2.252000 0.079767 0.047427 -0.001397 0.000000
2.254000 0.078233 0.040147 -0.001397 0.000000
2.256000 0.078233 0.039845 0.057632 0.000000
2.258000 0.078233 0.039111 0.130736 0.000000
2.260000 0.076699 0.048396 0.157690 0.000000
2.262000 0.076699 0.055049 0.031500 0.000000
2.264000 0.076699 0.046370 0.031500 0.000000
2.266000 0.076699 0.046053 -0.020257 0.000000
2.268000 0.075165 0.035646 -0.003263 0.000000
2.270000 0.075165 0.029177 0.121631 0.000000
2.272000 0.075165 0.040833 0.121631 0.000000
2.274000 0.073631 0.040579 0.146507 0.000000
2.276000 0.073631 0.047176 0.094552 0.000000
2.278000 0.073631 0.045668 0.017991 0.000000
2.280000 0.073631 0.040010 0.017991 0.000000
2.282000 0.072097 0.039719 -0.008062 0.000000
2.284000 0.072097 0.031921 0.062060 0.000000
2.286000 0.072097 0.036870 0.126644 0.000000
2.288000 0.072097 0.048444 0.126644 0.000000
2.290000 0.070563 0.048175 0.065634 0.000000
2.292000 0.070563 0.037749 0.005916 0.000000
2.294000 0.070563 0.031466 -0.022047 0.000000
2.296000 0.069029 0.026326 0.002420 0.000000
2.298000 0.069029 0.023138 0.002420 0.000000
2.300000 0.069029 0.022917 0.145276 0.000000
2.302000 0.069029 0.039540 0.135572 0.000000
2.304000 0.067495 0.043997 0.054253 0.000000
2.306000 0.067495 0.036759 -0.023817 0.000000
2.308000 0.067495 0.028632 0.004343 0.000000
2.310000 0.065961 0.024303 0.004343 0.000000
2.312000 0.065961 0.024076 0.072512 0.000000
2.314000 0.065961 0.030366 0.143876 0.000000
2.316000 0.065961 0.042931 0.040986 0.000000
2.318000 0.064427 0.032725 0.040986 0.000000
2.320000 0.064427 0.032479 -0.020200 0.000000
2.322000 0.064427 0.021840 -0.021531 0.000000
2.324000 0.064427 0.015915 0.074037 0.000000
2.326000 0.062893 0.025440 0.123682 0.000000
2.328000 0.062893 0.036690 0.123682 0.000000
2.330000 0.062893 0.036479 0.105265 0.000000
2.332000 0.062893 0.034199 0.014544 0.000000
2.334000 0.061359 0.025841 -0.017008 0.000000
2.336000 0.061359 0.021711 -0.017008 0.000000
2.338000 0.061359 0.021505 0.028183 0.000000
2.340000 0.059825 0.021498 0.099370 0.000000
2.342000 0.059825 0.034060 0.128183 0.000000
2.344000 0.059825 0.043338 -0.003265 0.000000
2.346000 0.059825 0.027594 -0.003265 0.000000
2.348000 0.058291 0.027352 -0.023531 0.000000
2.350000 0.058291 0.018712 -0.009841 0.000000
2.352000 0.058291 0.013676 0.103278 0.000000
2.354000 0.056757 0.027988 0.103278 0.000000
2.356000 0.056757 0.027810 0.109048 0.000000
2.358000 0.056757 0.034586 0.052764 0.000000
2.360000 0.056757 0.026434 -0.000125 0.000000
2.362000 0.055223 0.018800 -0.001017 0.000000
2.364000 0.055223 0.015503 -0.001017 0.000000
2.366000 0.055223 0.015328 0.056006 0.000000
2.368000 0.055223 0.020175 0.112815 0.000000
2.370000 0.053689 0.031986 0.112815 0.000000
2.372000 0.053689 0.031805 0.020704 0.000000
2.374000 0.053689 0.017823 -0.014802 0.000000
2.376000 0.052155 0.011580 -0.025436 0.000000
2.378000 0.052155 0.008212 -0.025436 0.000000
2.380000 0.052155 0.008070 0.008950 0.000000
2.382000 0.052155 0.008814 0.102500 0.000000
2.384000 0.050621 0.023300 0.077360 0.000000
2.386000 0.050621 0.026131 0.011468 0.000000
2.388000 0.050621 0.018419 -0.007866 0.000000
2.390000 0.050621 0.014193 0.016812 0.000000
2.392000 0.049087 0.014716 0.016812 0.000000
2.394000 0.049087 0.014566 0.065207 0.000000
2.396000 0.049087 0.021840 0.080485 0.000000
2.398000 0.047553 0.028948 0.010356 0.000000
2.400000 0.047553 0.020859 0.010356 0.000000
2.402000 0.047553 0.020670 0.003161 0.000000
2.404000 0.047553 0.014872 0.022809 0.000000
2.406000 0.046019 0.014418 0.022809 0.000000
2.408000 0.046019 0.014269 0.073403 0.000000
2.410000 0.046019 0.022526 0.066075 0.000000
2.412000 0.044485 0.026375 0.031643 0.000000
2.414000 0.044485 0.021300 0.029875 0.000000
2.416000 0.044485 0.017589 0.029875 0.000000
2.418000 0.044485 0.017412 0.019530 0.000000
2.420000 0.044485 0.013913 0.035353 0.000000
2.422000 0.042951 0.016158 0.066190 0.000000
2.424000 0.042951 0.022831 0.055364 0.000000
2.426000 0.042951 0.025922 0.020730 0.000000
2.428000 0.041417 0.019515 0.020730 0.000000
2.430000 0.041417 0.019333 0.016493 0.000000
2.432000 0.041417 0.013538 0.011669 0.000000
2.434000 0.041417 0.012148 0.011669 0.000000
2.436000 0.039884 0.012006 0.036134 0.000000
2.438000 0.039884 0.016374 0.032616 0.000000
2.440000 0.039884 0.018478 0.028621 0.000000
2.442000 0.039884 0.018128 0.025278 0.000000
2.444000 0.038350 0.015032 0.005457 0.000000
2.446000 0.038350 0.011151 0.005457 0.000000
2.448000 0.038350 0.011012 0.011762 0.000000
2.450000 0.038350 0.010961 0.027355 0.000000
2.452000 0.036816 0.013202 0.041399 0.000000
2.454000 0.036816 0.015033 0.041399 0.000000
2.456000 0.036816 0.014895 0.029737 0.000000
2.458000 0.036816 0.008893 0.013985 0.000000
2.460000 0.035282 0.006558 -0.000568 0.000000
2.462000 0.035282 0.005689 0.001950 0.000000
2.464000 0.035282 0.007300 0.001950 0.000000
2.466000 0.035282 0.007195 0.045230 0.000000
2.468000 0.033748 0.014227 0.055236 0.000000
2.470000 0.033748 0.016296 -0.004226 0.000000
2.472000 0.033748 0.005874 -0.004226 0.000000
2.474000 0.032214 0.005750 -0.022558 0.000000
2.476000 0.032214 0.001018 -0.022683 0.000000
2.478000 0.032214 -0.000863 0.007378 0.000000
2.480000 0.032214 0.002340 0.058027 0.000000
2.482000 0.032214 0.008504 0.058027 0.000000
2.484000 0.030680 0.008412 0.019283 0.000000
2.486000 0.030680 0.000153 -0.023685 0.000000
2.488000 0.030680 -0.003087 -0.020736 0.000000
2.490000 0.029146 -0.000350 0.040973 0.000000
2.492000 0.029146 0.010112 0.040973 0.000000
2.494000 0.029146 0.010031 0.073760 0.000000
2.496000 0.029146 0.025247 0.068360 0.000000
2.498000 0.029146 0.020109 -0.045922 0.000000
2.500000 0.027612 0.005057 -0.054199 0.000000
2.502000 0.027612 -0.001291 -0.054199 0.000000
2.504000 0.027612 -0.001391 0.006018 0.000000
2.506000 0.026078 -0.000320 0.082323 0.000000
2.508000 0.026078 0.016502 0.082323 0.000000
2.510000 0.026078 0.016413 0.028904 0.000000
2.512000 0.026078 0.000640 -0.033861 0.000000
2.514000 0.024544 -0.010782 -0.073193 0.000000
2.516000 0.024544 -0.014043 0.037718 0.000000
2.518000 0.024544 -0.003479 0.114368 0.000000
2.520000 0.024544 0.022671 0.114368 0.000000
2.522000 0.024544 0.022591 0.118007 0.000000
2.524000 0.023010 0.031248 -0.002236 0.000000
2.526000 0.023010 0.006156 -0.002236 0.000000
2.528000 0.023010 0.005999 -0.081881 0.000000
2.530000 0.023010 -0.001868 -0.018089 0.000000
2.532000 0.021476 -0.002498 0.076131 0.000000
2.534000 0.021476 0.012567 0.055412 0.000000
2.536000 0.021476 0.014353 0.055412 0.000000
2.538000 0.021476 0.014236 -0.041443 0.000000
2.540000 0.019942 -0.010692 -0.091158 0.000000
2.542000 0.019942 -0.017158 -0.053303 0.000000
2.544000 0.019942 -0.014130 -0.053303 0.000000
2.546000 0.019942 -0.014134 0.128758 0.000000
2.548000 0.019942 0.023719 0.130929 0.000000
2.550000 0.019942 0.043997 -0.004131 0.000000
2.552000 0.018408 0.014224 -0.004131 0.000000
2.554000 0.018408 0.014036 -0.084491 0.000000
2.556000 0.016874 -0.004649 -0.014368 0.000000
2.558000 0.016874 -0.005486 0.100857 0.000000
2.560000 0.016874 0.009516 0.187566 0.000000
2.562000 0.016874 0.047413 -0.053041 0.000000
2.564000 0.016874 0.010873 -0.053041 0.000000
2.566000 0.016874 0.010690 -0.106041 0.000000
2.568000 0.015340 -0.011883 -0.057876 0.000000
2.570000 0.015340 -0.012547 -0.057876 0.000000
2.572000 0.015340 -0.012583 0.154722 0.000000
2.574000 0.015340 0.026931 0.141601 0.000000
2.576000 0.015340 0.046067 -0.023433 0.000000
2.578000 0.013806 0.016808 -0.117403 0.000000
2.580000 0.013806 -0.012132 -0.117403 0.000000
2.582000 0.013806 -0.012262 -0.021287 0.000000
2.584000 0.013806 -0.009431 0.111236 0.000000
2.586000 0.013806 0.011911 0.188218 0.000000
2.588000 0.013806 0.049476 0.033955 0.000000
2.590000 0.012272 0.036047 -0.105630 0.000000
2.592000 0.012272 0.005964 -0.105630 0.000000
2.594000 0.010738 0.005778 -0.069366 0.000000
2.596000 0.010738 -0.004576 0.050103 0.000000
2.598000 0.010738 0.003209 0.105133 0.000000
2.600000 0.010738 0.025621 0.105133 0.000000
2.602000 0.010738 0.025517 -0.042977 0.000000
2.604000 0.010738 -0.001121 -0.125497 0.000000
2.606000 0.009204 -0.023332 -0.064519 0.000000
2.608000 0.009204 -0.022870 -0.064519 0.000000
2.610000 0.009204 -0.022865 0.128454 0.000000
2.612000 0.009204 0.009173 0.156602 0.000000
2.614000 0.009204 0.035299 -0.011940 0.000000
2.616000 0.007670 0.015633 -0.086362 0.000000
2.618000 0.007670 -0.005367 -0.054384 0.000000
2.620000 0.007670 -0.012713 -0.054384 0.000000
2.622000 0.007670 -0.012759 0.077357 0.000000
2.624000 0.007670 0.004412 0.176442 0.000000
2.626000 0.007670 0.036878 0.176442 0.000000
2.628000 0.006136 0.036795 -0.093313 0.000000
2.630000 0.006136 -0.006521 -0.108413 0.000000
2.632000 0.006136 -0.022284 -0.068376 0.000000
2.634000 0.006136 -0.024651 -0.068376 0.000000
2.636000 0.006136 -0.024642 0.131543 0.000000
2.638000 0.006136 0.018070 0.104057 0.000000
2.640000 0.004602 0.030062 -0.054285 0.000000
2.642000 0.004602 0.002546 -0.111376 0.000000
2.644000 0.004602 -0.020418 -0.111376 0.000000
2.646000 0.003068 -0.020480 -0.034077 0.000000
2.648000 0.004602 -0.019567 0.077279 0.000000
2.650000 0.004602 0.003993 0.148672 0.000000
2.652000 0.003068 0.030160 -0.118270 0.000000
2.654000 0.003068 -0.007887 -0.075350 0.000000
2.656000 0.001534 -0.019615 -0.075350 0.000000
2.658000 0.001534 -0.019649 -0.041707 0.000000
2.660000 0.001534 -0.021719 0.017213 0.000000
2.662000 0.001534 -0.012610 0.017213 0.000000
2.664000 0.001534 -0.012563 0.062707 0.000000
2.666000 0.001534 0.005301 -0.100827 0.000000
2.668000 0.001534 -0.020322 -0.078213 0.000000
2.670000 -0.000000 -0.030122 -0.011296 0.000000
2.672000 -0.000000 -0.025749 -0.011296 0.000000
2.674000 -0.000000 -0.025676 0.095428 0.000000
2.676000 -0.000000 0.008881 0.108780 0.000000
2.678000 -0.000000 0.025929 -0.033433 0.000000
2.680000 -0.000000 0.002992 -0.033433 0.000000
2.682000 -0.001534 0.002900 -0.059157 0.000000
2.684000 -0.001534 -0.016096 -0.026892 0.000000
2.686000 -0.001534 -0.018681 0.014801 0.000000
2.688000 -0.001534 -0.007853 0.082066 0.000000
2.690000 -0.001534 0.016498 0.082066 0.000000
2.692000 -0.001534 0.016470 -0.076502 0.000000
2.694000 -0.001534 -0.015076 -0.047112 0.000000
2.696000 -0.003068 -0.023041 -0.020765 0.000000
2.698000 -0.003068 -0.021942 0.042831 0.000000
2.700000 -0.003068 -0.002766 0.042831 0.000000
2.702000 -0.003068 -0.002735 0.048169 0.000000
2.704000 -0.003068 0.007996 -0.063850 0.000000
2.706000 -0.003068 -0.011903 -0.038800 0.000000
2.708000 -0.003068 -0.020560 -0.027960 0.000000
2.710000 -0.004602 -0.020932 -0.000494 0.000000
2.712000 -0.004602 -0.012532 -0.000494 0.000000
2.714000 -0.004602 -0.012482 0.046809 0.000000
2.716000 -0.004602 0.001446 -0.016408 0.000000
2.718000 -0.004602 -0.007781 -0.019777 0.000000
2.720000 -0.004602 -0.013451 -0.019777 0.000000
2.722000 -0.004602 -0.013451 -0.022136 0.000000
2.724000 -0.004602 -0.016242 -0.018856 0.000000
2.726000 -0.004602 -0.012656 -0.018856 0.000000
2.728000 -0.006136 -0.012620 -0.007388 0.000000
2.730000 -0.006136 -0.008411 -0.018603 0.000000
2.732000 -0.006136 -0.011408 -0.014563 0.000000
2.734000 -0.006136 -0.013741 -0.032729 0.000000
2.736000 -0.006136 -0.016009 -0.032729 0.000000
2.738000 -0.006136 -0.015981 -0.029113 0.000000
2.740000 -0.007670 -0.014408 -0.002935 0.000000
2.742000 -0.007670 -0.011718 0.003096 0.000000
2.744000 -0.007670 -0.011007 0.003096 0.000000
2.746000 -0.007670 -0.010981 0.002032 0.000000
2.748000 -0.007670 -0.014840 -0.046100 0.000000
2.750000 -0.007670 -0.019817 -0.076619 0.000000
2.752000 -0.007670 -0.024393 0.000661 0.000000
2.754000 -0.009204 -0.017287 0.000661 0.000000
2.756000 -0.009204 -0.017221 0.015810 0.000000
2.758000 -0.009204 -0.007836 0.021543 0.000000
2.760000 -0.009204 -0.006532 -0.034345 0.000000
2.762000 -0.009204 -0.013051 -0.034345 0.000000
2.764000 -0.009204 -0.013036 -0.061620 0.000000
2.766000 -0.009204 -0.018581 -0.012182 0.000000
2.768000 -0.009204 -0.015704 0.038367 0.000000
2.770000 -0.009204 -0.005652 0.039058 0.000000
2.772000 -0.009204 0.000875 0.039058 0.000000
2.774000 -0.009204 0.000872 -0.091579 0.000000
2.776000 -0.010738 -0.020299 -0.099534 0.000000
2.778000 -0.010738 -0.028673 -0.026453 0.000000
2.780000 -0.010738 -0.024273 0.070992 0.000000
2.782000 -0.010738 -0.003513 0.070992 0.000000
2.784000 -0.010738 -0.003461 0.009000 0.000000
2.786000 -0.010738 -0.006425 -0.083243 0.000000
2.788000 -0.010738 -0.025602 -0.120963 0.000000
2.790000 -0.012272 -0.038534 -0.120963 0.000000
2.792000 -0.012272 -0.038450 0.017563 0.000000
2.794000 -0.012272 -0.023341 0.085273 0.000000
2.796000 -0.012272 0.001345 0.035008 0.000000
2.798000 -0.012272 0.006507 -0.140331 0.000000
2.800000 -0.012272 -0.023569 -0.140331 0.000000
2.802000 -0.012272 -0.023562 -0.085604 0.000000
2.804000 -0.012272 -0.029779 0.002903 0.000000
2.806000 -0.012272 -0.022839 0.097561 0.000000
2.808000 -0.012272 0.001779 0.097561 0.000000
2.810000 -0.012272 0.001840 -0.051898 0.000000
2.812000 -0.012272 -0.019618 -0.131283 0.000000
2.814000 -0.013806 -0.039141 -0.112224 0.000000
2.816000 -0.013806 -0.042563 0.080793 0.000000
2.818000 -0.013806 -0.016354 0.122147 0.000000
2.820000 -0.013806 0.023242 -0.029073 0.000000
2.822000 -0.013806 0.005401 -0.029073 0.000000
2.824000 -0.013806 0.005353 -0.134701 0.000000
2.826000 -0.013806 -0.034217 -0.044658 0.000000
2.828000 -0.015340 -0.031907 -0.044658 0.000000
2.830000 -0.013806 -0.031813 0.067735 0.000000
2.832000 -0.013806 -0.013950 0.139189 0.000000
2.834000 -0.013806 0.026074 -0.120391 0.000000
2.836000 -0.013806 -0.015196 -0.120391 0.000000
2.838000 -0.015340 -0.015227 -0.145321 0.000000
2.840000 -0.015340 -0.041539 -0.065042 0.000000
2.842000 -0.015340 -0.037960 0.027627 0.000000
2.844000 -0.015340 -0.026716 0.073680 0.000000
2.846000 -0.015340 0.005436 0.073680 0.000000
2.848000 -0.015340 0.005504 -0.084565 0.000000
2.850000 -0.015340 -0.024484 -0.155405 0.000000
2.852000 -0.016874 -0.048434 -0.070672 0.000000
2.854000 -0.016874 -0.045969 0.110313 0.000000
2.856000 -0.015340 -0.010892 0.110313 0.000000
2.858000 -0.015340 -0.010749 0.103753 0.000000
2.860000 -0.015340 0.025090 -0.057316 0.000000
2.862000 -0.016874 -0.002700 -0.087187 0.000000
2.864000 -0.016874 -0.022834 -0.087187 0.000000
2.866000 -0.016874 -0.022825 -0.023217 0.000000
2.868000 -0.016874 -0.024364 0.079852 0.000000
2.870000 -0.015340 -0.003384 0.133620 0.000000
2.872000 -0.016874 0.034063 0.133620 0.000000
2.874000 -0.016874 0.034043 -0.142094 0.000000
2.876000 -0.016874 -0.021714 -0.091480 0.000000
2.878000 -0.018408 -0.034881 -0.029390 0.000000
2.880000 -0.016874 -0.032508 0.112232 0.000000
2.882000 -0.016874 0.013864 0.026068 0.000000
2.884000 -0.016874 0.016116 -0.130841 0.000000
2.886000 -0.016874 -0.022524 -0.130841 0.000000
2.888000 -0.018408 -0.022541 -0.111734 0.000000
2.890000 -0.018408 -0.042644 0.015506 0.000000
2.892000 -0.018408 -0.032573 0.015506 0.000000
2.894000 -0.016874 -0.032420 0.103718 0.000000
2.896000 -0.016874 0.015013 0.055243 0.000000
2.898000 -0.016874 0.026190 -0.107872 0.000000
2.900000 -0.018408 -0.014760 -0.059250 0.000000
2.902000 -0.018408 -0.026859 -0.007511 0.000000
2.904000 -0.018408 -0.025868 -0.007511 0.000000
2.906000 -0.016874 -0.025779 0.046923 0.000000
2.908000 -0.016874 -0.000253 0.046923 0.000000
2.910000 -0.018408 -0.000171 -0.042681 0.000000
2.912000 -0.018408 -0.010676 -0.111535 0.000000
2.914000 -0.018408 -0.034084 -0.066249 0.000000
2.916000 -0.018408 -0.037417 0.018599 0.000000
2.918000 -0.018408 -0.024735 0.018599 0.000000
2.920000 -0.016874 -0.024598 0.052311 0.000000
2.922000 -0.018408 0.019352 0.000649 0.000000
2.924000 -0.018408 0.009230 -0.108678 0.000000
2.926000 -0.018408 -0.026524 -0.010703 0.000000
2.928000 -0.018408 -0.030319 -0.010703 0.000000
2.930000 -0.018408 -0.030236 -0.017070 0.000000
2.932000 -0.018408 -0.028129 0.024152 0.000000
2.934000 -0.018408 -0.003342 0.001417 0.000000
2.936000 -0.018408 0.004976 -0.068409 0.000000
2.938000 -0.018408 -0.023202 -0.019082 0.000000
2.940000 -0.018408 -0.030013 -0.019082 0.000000
2.942000 -0.018408 -0.029926 -0.030653 0.000000
2.944000 -0.018408 -0.031030 -0.014045 0.000000
2.946000 -0.018408 -0.004336 -0.014045 0.000000
2.948000 -0.018408 -0.004240 -0.045097 0.000000
2.950000 -0.019942 -0.021944 -0.071397 0.000000
2.952000 -0.019942 -0.037414 -0.039795 0.000000
2.954000 -0.019942 -0.039327 -0.041506 0.000000
2.956000 -0.018408 -0.031360 -0.041506 0.000000
2.958000 -0.018408 -0.031200 -0.013993 0.000000
2.960000 -0.018408 -0.007237 -0.030581 0.000000
2.962000 -0.019942 -0.014107 -0.032186 0.000000
2.964000 -0.019942 -0.028013 -0.032186 0.000000
2.966000 -0.019942 -0.027925 -0.044647 0.000000
2.968000 -0.018408 -0.033622 -0.055143 0.000000
2.970000 -0.018408 -0.033214 -0.027373 0.000000
2.972000 -0.019942 -0.022199 -0.032963 0.000000
2.974000 -0.019942 -0.027260 -0.032963 0.000000
2.976000 -0.019942 -0.027134 -0.025620 0.000000
2.978000 -0.019942 -0.030985 -0.046856 0.000000
2.980000 -0.019942 -0.033947 -0.031863 0.000000
2.982000 -0.019942 -0.026701 -0.031863 0.000000
2.984000 -0.019942 -0.026551 0.004377 0.000000
2.986000 -0.019942 -0.014636 -0.002292 0.000000
2.988000 -0.019942 -0.014992 -0.003337 0.000000
2.990000 -0.019942 -0.019474 -0.078998 0.000000
2.992000 -0.019942 -0.029493 -0.078998 0.000000
2.994000 -0.019942 -0.029392 -0.062766 0.000000
2.996000 -0.019942 -0.029466 -0.006251 0.000000
2.998000 -0.019942 -0.019541 0.010920 0.000000
3.000000 -0.019942 -0.018635 0.010920 0.000000
3.002000 -0.019942 -0.018531 -0.051286 0.000000
3.004000 -0.019942 -0.028704 -0.081630 0.000000
3.006000 -0.019942 -0.034908 -0.083662 0.000000
3.008000 -0.019942 -0.036903 0.040807 0.000000
3.010000 -0.019942 -0.017594 0.031313 0.000000
3.012000 -0.019942 -0.011295 0.031313 0.000000
3.014000 -0.019942 -0.011195 -0.038413 0.000000
3.016000 -0.019942 -0.021749 -0.085624 0.000000
3.018000 -0.019942 -0.031532 -0.085624 0.000000
3.020000 -0.019942 -0.031427 -0.017003 0.000000
3.022000 -0.019942 -0.020929 0.047927 0.000000
3.024000 -0.019942 -0.003304 0.055973 0.000000
3.026000 -0.019942 0.006180 -0.076345 0.000000
3.028000 -0.019942 -0.015071 -0.076345 0.000000
3.030000 -0.019942 -0.015045 -0.107486 0.000000
3.032000 -0.019942 -0.029276 -0.039045 0.000000
3.034000 -0.019942 -0.027298 0.046800 0.000000
3.036000 -0.019942 -0.010423 0.001660 0.000000
3.038000 -0.018408 -0.008672 0.001660 0.000000
3.040000 -0.018408 -0.008607 -0.087905 0.000000
3.042000 -0.019942 -0.030764 -0.125077 0.000000
3.044000 -0.019942 -0.041709 0.037395 0.000000
3.046000 -0.019942 -0.020892 0.037395 0.000000
3.048000 -0.019942 -0.020740 0.101039 0.000000
3.050000 -0.018408 0.012700 0.023314 0.000000
3.052000 -0.018408 0.012175 -0.080188 0.000000
3.054000 -0.019942 -0.015109 -0.090447 0.000000
3.056000 -0.019942 -0.024897 0.010930 0.000000
3.058000 -0.019942 -0.016068 0.010930 0.000000
3.060000 -0.018408 -0.015974 0.095572 0.000000
3.062000 -0.018408 0.019319 -0.073644 0.000000
3.064000 -0.018408 -0.009561 -0.073644 0.000000
3.066000 -0.019942 -0.009564 -0.146223 0.000000
3.068000 -0.019942 -0.037042 -0.093846 0.000000
3.070000 -0.019942 -0.037332 -0.007446 0.000000
3.072000 -0.018408 -0.028678 0.104508 0.000000
3.074000 -0.018408 0.013896 -0.060667 0.000000
3.076000 -0.018408 -0.011608 -0.060667 0.000000
3.078000 -0.018408 -0.011581 -0.151363 0.000000
3.080000 -0.019942 -0.045598 -0.039575 0.000000
3.082000 -0.019942 -0.039225 0.082941 0.000000
3.084000 -0.018408 -0.012580 0.082941 0.000000
3.086000 -0.018408 -0.012421 0.127927 0.000000
3.088000 -0.018408 0.035879 -0.038873 0.000000
3.090000 -0.018408 0.007783 -0.116531 0.000000
3.092000 -0.019942 -0.022405 -0.116531 0.000000
3.094000 -0.019942 -0.022404 -0.045141 0.000000
3.096000 -0.018408 -0.027335 0.080502 0.000000
3.098000 -0.018408 -0.009715 0.143688 0.000000
3.100000 -0.018408 0.036463 -0.141663 0.000000
3.102000 -0.018408 -0.012361 -0.141663 0.000000
3.104000 -0.019942 -0.012398 -0.147892 0.000000
3.106000 -0.019942 -0.040382 -0.043064 0.000000
3.108000 -0.018408 -0.035947 0.118723 0.000000
3.110000 -0.016874 0.016892 0.118723 0.000000
3.112000 -0.018408 0.016979 0.011328 0.000000
3.114000 -0.018408 0.013004 -0.126498 0.000000
3.116000 -0.018408 -0.029674 -0.158786 0.000000
3.118000 -0.019942 -0.054040 0.026406 0.000000
3.120000 -0.018408 -0.041946 0.026406 0.000000
3.122000 -0.016874 -0.041744 0.100107 0.000000
3.124000 -0.016874 0.015034 0.062235 0.000000
3.126000 -0.018408 0.028117 -0.171581 0.000000
3.128000 -0.018408 -0.025458 -0.171581 0.000000
3.130000 -0.018408 -0.025459 -0.054665 0.000000
3.132000 -0.018408 -0.035950 0.015248 0.000000
3.134000 -0.016874 -0.030585 0.094437 0.000000
3.136000 -0.016874 0.001542 -0.077688 0.000000
3.138000 -0.016874 -0.019322 -0.077688 0.000000
3.140000 -0.018408 -0.019249 -0.170878 0.000000
3.142000 -0.018408 -0.051685 -0.067601 0.000000
3.144000 -0.018408 -0.049212 0.078261 0.000000
3.146000 -0.016874 -0.018013 0.065726 0.000000
3.148000 -0.016874 0.024169 0.065726 0.000000
3.150000 -0.016874 0.024233 -0.085260 0.000000
3.152000 -0.018408 -0.007791 -0.166429 0.000000
3.154000 -0.018408 -0.047628 -0.009469 0.000000
3.156000 -0.018408 -0.042850 -0.009469 0.000000
3.158000 -0.016874 -0.042678 0.066635 0.000000
3.160000 -0.016874 -0.020480 0.084250 0.000000
3.162000 -0.016874 0.029981 -0.148669 0.000000
3.164000 -0.016874 -0.024872 -0.102295 0.000000
3.166000 -0.018408 -0.044292 -0.102295 0.000000
3.168000 -0.018408 -0.044183 -0.019906 0.000000
3.170000 -0.016874 -0.038212 0.052010 0.000000
3.172000 -0.015340 -0.024560 -0.030072 0.000000
3.174000 -0.016874 -0.001086 -0.030072 0.000000
3.176000 -0.016874 -0.000978 -0.115590 0.000000
3.178000 -0.018408 -0.036575 -0.105184 0.000000
3.180000 -0.018408 -0.048777 -0.007984 0.000000
3.182000 -0.016874 -0.039944 0.066649 0.000000
3.184000 -0.015340 -0.005322 0.066649 0.000000
3.186000 -0.015340 -0.005171 0.003434 0.000000
3.188000 -0.016874 0.017099 -0.104463 0.000000
3.190000 -0.016874 -0.023101 -0.025921 0.000000
3.192000 -0.016874 -0.033486 -0.025921 0.000000
3.194000 -0.016874 -0.033386 0.029245 0.000000
3.196000 -0.015340 -0.027297 0.066701 0.000000
3.198000 -0.015340 0.000477 0.033482 0.000000
3.200000 -0.015340 0.025951 -0.099158 0.000000
3.202000 -0.016874 -0.016322 -0.099158 0.000000
3.204000 -0.016874 -0.016322 -0.034412 0.000000
3.206000 -0.015340 -0.029139 0.024736 0.000000
3.208000 -0.015340 -0.023813 0.010472 0.000000
3.210000 -0.015340 0.006874 0.010472 0.000000
3.212000 -0.015340 0.006945 -0.092168 0.000000
3.214000 -0.015340 -0.018765 -0.100927 0.000000
3.216000 -0.016874 -0.042328 -0.048060 0.000000
3.218000 -0.015340 -0.044040 0.049924 0.000000
3.220000 -0.015340 -0.023117 0.049924 0.000000
3.222000 -0.013806 -0.022936 -0.007738 0.000000
3.224000 -0.015340 0.008382 -0.067877 0.000000
3.226000 -0.015340 -0.007987 -0.053879 0.000000
3.228000 -0.015340 -0.030435 -0.053879 0.000000
3.230000 -0.015340 -0.030353 0.002369 0.000000
3.232000 -0.013806 -0.030981 0.029853 0.000000
3.234000 -0.013806 -0.019482 -0.009418 0.000000
3.236000 -0.013806 0.002742 -0.083069 0.000000
3.238000 -0.015340 -0.023874 -0.083069 0.000000
3.240000 -0.015340 -0.023798 -0.075095 0.000000
3.242000 -0.015340 -0.036910 -0.004688 0.000000
3.244000 -0.013806 -0.030711 0.011861 0.000000
3.246000 -0.013806 -0.002170 -0.031438 0.000000
3.248000 -0.013806 0.000400 -0.031438 0.000000
3.250000 -0.013806 0.000453 -0.066707 0.000000
3.252000 -0.013806 -0.029160 -0.070916 0.000000
3.254000 -0.013806 -0.040793 -0.003444 0.000000
3.256000 -0.013806 -0.034128 -0.003444 0.000000
3.258000 -0.013806 -0.033956 -0.010691 0.000000
3.260000 -0.013806 -0.012982 -0.048812 0.000000
3.262000 -0.013806 -0.005338 -0.072051 0.000000
3.264000 -0.013806 -0.026133 -0.019856 0.000000
3.266000 -0.013806 -0.031944 -0.019856 0.000000
3.268000 -0.013806 -0.031815 -0.008935 0.000000
3.270000 -0.012272 -0.028494 -0.004735 0.000000
3.272000 -0.012272 -0.016623 -0.049806 0.000000
3.274000 -0.013806 -0.022073 -0.049806 0.000000
3.276000 -0.013806 -0.021953 -0.064526 0.000000
3.278000 -0.013806 -0.034410 -0.021121 0.000000
3.280000 -0.013806 -0.032901 -0.022900 0.000000
3.282000 -0.012272 -0.028793 -0.035033 0.000000
3.284000 -0.012272 -0.013005 -0.035033 0.000000
3.286000 -0.012272 -0.012874 -0.020676 0.000000
3.288000 -0.012272 -0.016797 -0.039428 0.000000
3.290000 -0.012272 -0.027228 -0.016393 0.000000
3.292000 -0.012272 -0.027787 -0.011144 0.000000
3.294000 -0.012272 -0.021308 -0.011144 0.000000
3.296000 -0.012272 -0.021171 -0.030673 0.000000
3.298000 -0.012272 -0.008600 -0.001555 0.000000
3.300000 -0.012272 -0.012826 -0.033372 0.000000
3.302000 -0.012272 -0.026805 -0.033372 0.000000
3.304000 -0.012272 -0.026707 -0.025559 0.000000
3.306000 -0.012272 -0.030053 -0.027552 0.000000
3.308000 -0.012272 -0.026350 0.004042 0.000000
3.310000 -0.012272 -0.014673 -0.026550 0.000000
3.312000 -0.012272 -0.021273 -0.026550 0.000000
3.314000 -0.012272 -0.021164 -0.028573 0.000000
3.316000 -0.012272 -0.026553 -0.038056 0.000000
3.318000 -0.010738 -0.027341 -0.015134 0.000000
3.320000 -0.010738 -0.016512 -0.015134 0.000000
3.322000 -0.010738 -0.016384 -0.001231 0.000000
3.324000 -0.010738 -0.007923 -0.017374 0.000000
3.326000 -0.010738 -0.013690 -0.041788 0.000000
3.328000 -0.010738 -0.021019 -0.056545 0.000000
3.330000 -0.010738 -0.023068 -0.056545 0.000000
3.332000 -0.010738 -0.022960 -0.022551 0.000000
3.334000 -0.010738 -0.013830 0.003072 0.000000
3.336000 -0.010738 -0.005201 -0.016216 0.000000
3.338000 -0.010738 -0.013170 -0.016216 0.000000
3.340000 -0.010738 -0.013105 -0.039061 0.000000
3.342000 -0.010738 -0.021590 -0.057066 0.000000
3.344000 -0.010738 -0.024220 -0.023909 0.000000
3.346000 -0.010738 -0.018867 0.003487 0.000000
3.348000 -0.010738 -0.011860 0.003487 0.000000
3.350000 -0.010738 -0.011763 0.000483 0.000000
3.352000 -0.010738 -0.015571 -0.048090 0.000000
3.354000 -0.010738 -0.022577 -0.030019 0.000000
3.356000 -0.009204 -0.018528 -0.030019 0.000000
3.358000 -0.009204 -0.018420 0.012508 0.000000
3.360000 -0.009204 -0.004265 0.027058 0.000000
3.362000 -0.009204 0.002336 0.021761 0.000000
3.364000 -0.009204 -0.001932 -0.071331 0.000000
3.366000 -0.009204 -0.014563 -0.071331 0.000000
3.368000 -0.009204 -0.014524 -0.049542 0.000000
3.370000 -0.009204 -0.017791 0.003086 0.000000
3.372000 -0.009204 -0.008713 0.016220 0.000000
3.374000 -0.009204 -0.005076 -0.049789 0.000000
3.376000 -0.009204 -0.014943 -0.049789 0.000000
3.378000 -0.009204 -0.014892 -0.069395 0.000000
3.380000 -0.009204 -0.023284 -0.056806 0.000000
3.382000 -0.009204 -0.024284 0.045365 0.000000
3.384000 -0.009204 -0.004275 0.045365 0.000000
3.386000 -0.007670 -0.004179 0.039834 0.000000
3.388000 -0.007670 0.001930 -0.040683 0.000000
3.390000 -0.007670 -0.011843 -0.077715 0.000000
3.392000 -0.007670 -0.022350 -0.003655 0.000000
3.394000 -0.007670 -0.016352 -0.003655 0.000000
3.396000 -0.007670 -0.016252 0.046436 0.000000
3.398000 -0.007670 0.003905 0.053585 0.000000
3.400000 -0.007670 0.010962 -0.070416 0.000000
3.402000 -0.007670 -0.013549 -0.070416 0.000000
3.404000 -0.007670 -0.013534 -0.086271 0.000000
3.406000 -0.007670 -0.027222 -0.011682 0.000000
3.408000 -0.007670 -0.022311 0.054294 0.000000
3.410000 -0.007670 -0.001046 -0.027985 0.000000
3.412000 -0.007670 -0.010366 -0.027985 0.000000
3.414000 -0.007670 -0.010314 -0.085161 0.000000
3.416000 -0.007670 -0.030415 -0.098035 0.000000
3.418000 -0.007670 -0.036872 0.033246 0.000000
3.420000 -0.006136 -0.015178 0.033246 0.000000
3.422000 -0.006136 -0.015036 0.065799 0.000000
3.424000 -0.006136 0.010964 -0.011696 0.000000
3.426000 -0.006136 0.000499 -0.095151 0.000000
3.428000 -0.006136 -0.024560 -0.048875 0.000000
3.430000 -0.006136 -0.026038 -0.048875 0.000000
3.432000 -0.006136 -0.025932 0.030326 0.000000
3.434000 -0.006136 -0.007851 0.072551 0.000000
3.436000 -0.006136 0.016461 -0.091918 0.000000
3.438000 -0.006136 -0.013645 -0.108112 0.000000
3.440000 -0.006136 -0.029680 -0.053008 0.000000
3.442000 -0.006136 -0.029627 -0.053008 0.000000
3.444000 -0.006136 -0.029501 0.026701 0.000000
3.446000 -0.006136 -0.013262 0.036784 0.000000
3.448000 -0.006136 0.001957 0.036784 0.000000
3.450000 -0.006136 0.002031 -0.079790 0.000000
3.452000 -0.006136 -0.025216 -0.119831 0.000000
3.454000 -0.006136 -0.040586 0.030406 0.000000
3.456000 -0.006136 -0.024372 0.089767 0.000000
3.458000 -0.004602 0.007882 0.049663 0.000000
3.460000 -0.004602 0.019885 0.049663 0.000000
3.462000 -0.004602 0.019887 -0.077287 0.000000
3.464000 -0.006136 -0.017735 -0.062377 0.000000
3.466000 -0.006136 -0.024705 -0.062377 0.000000
3.468000 -0.004602 -0.024643 0.018825 0.000000
3.470000 -0.004602 -0.015473 0.093222 0.000000
3.472000 -0.004602 0.014013 -0.056874 0.000000
3.474000 -0.004602 -0.009505 -0.124190 0.000000
3.476000 -0.004602 -0.031240 -0.124190 0.000000
3.478000 -0.004602 -0.031178 -0.069202 0.000000
3.480000 -0.004602 -0.032464 0.009078 0.000000
3.482000 -0.004602 -0.022756 0.095643 0.000000
3.484000 -0.004602 0.020866 -0.048887 0.000000
3.486000 -0.004602 -0.003719 -0.048887 0.000000
3.488000 -0.004602 -0.003715 -0.126033 0.000000
3.490000 -0.004602 -0.034768 0.006702 0.000000
3.492000 -0.004602 -0.025981 0.099422 0.000000
3.494000 -0.003068 0.000615 0.099422 0.000000
3.496000 -0.003068 0.000720 0.122183 0.000000
3.498000 -0.003068 0.045316 -0.032221 0.000000
3.500000 -0.004602 0.011454 -0.083296 0.000000
3.502000 -0.004602 -0.013025 -0.003308 0.000000
3.504000 -0.004602 -0.014468 -0.003308 0.000000
3.506000 -0.003068 -0.014427 0.091813 0.000000
3.508000 -0.003068 0.009104 0.120845 0.000000
3.510000 -0.003068 0.049261 -0.110809 0.000000
3.512000 -0.003068 -0.000765 -0.093719 0.000000
3.514000 -0.004602 -0.021650 -0.010191 0.000000
3.516000 -0.003068 -0.020831 -0.010191 0.000000
3.518000 -0.003068 -0.020762 0.124127 0.000000
3.520000 -0.001534 0.044085 -0.008493 0.000000
3.522000 -0.001534 0.022147 -0.008493 0.000000
3.524000 -0.003068 0.022055 -0.129349 0.000000
3.526000 -0.003068 -0.030367 -0.124824 0.000000
3.528000 -0.003068 -0.044978 0.067299 0.000000
3.530000 -0.001534 -0.022400 0.115775 0.000000
3.532000 -0.001534 0.030767 0.115775 0.000000
3.534000 -0.001534 0.030818 0.008378 0.000000
3.536000 -0.003068 0.022910 -0.134651 0.000000
3.538000 -0.003068 -0.020819 -0.017724 0.000000
3.540000 -0.003068 -0.023628 0.057075 0.000000
3.542000 -0.001534 -0.013945 0.057075 0.000000
3.544000 -0.001534 -0.013849 0.107260 0.000000
3.546000 -0.001534 0.039180 -0.107241 0.000000
3.548000 -0.001534 -0.008699 -0.145733 0.000000
3.550000 -0.003068 -0.036397 -0.145733 0.000000
3.552000 -0.003068 -0.036351 -0.020881 0.000000
3.554000 -0.001534 -0.030204 0.116959 0.000000
3.556000 -0.000000 0.018549 0.053059 0.000000
3.558000 -0.000000 0.033840 0.053059 0.000000
3.560000 -0.001534 0.033799 -0.106408 0.000000
3.562000 -0.001534 -0.022027 -0.156128 0.000000
3.564000 -0.001534 -0.049535 0.043457 0.000000
3.566000 -0.001534 -0.035029 0.097728 0.000000
3.568000 -0.000000 0.002473 0.097728 0.000000
3.570000 -0.000000 0.002595 0.046101 0.000000
3.572000 -0.000000 0.032725 -0.158706 0.000000
3.574000 -0.001534 -0.023304 -0.035255 0.000000
3.576000 -0.001534 -0.031283 -0.035255 0.000000
3.578000 -0.001534 -0.031206 0.038519 0.000000
3.580000 -0.000000 -0.023170 0.098922 0.000000
3.582000 -0.000000 0.007883 -0.079818 0.000000
3.584000 -0.000000 -0.011024 -0.150540 0.000000
3.586000 -0.001534 -0.039779 -0.150540 0.000000
3.588000 -0.001534 -0.039691 -0.037978 0.000000
3.590000 -0.000000 -0.037216 0.094328 0.000000
3.592000 -0.000000 -0.005406 0.050078 0.000000
3.594000 0.001534 0.029830 -0.073596 0.000000
3.596000 -0.000000 -0.000769 -0.073596 0.000000
3.598000 -0.000000 -0.000799 -0.147677 0.000000
3.600000 -0.001534 -0.043522 0.035694 0.000000
3.602000 -0.000000 -0.032876 0.106903 0.000000
3.604000 0.001534 -0.005676 0.071408 0.000000
3.606000 0.001534 0.033563 -0.061869 0.000000
3.608000 0.001534 0.010179 -0.061869 0.000000
3.610000 -0.000000 0.010121 -0.061963 0.000000
3.612000 -0.000000 -0.024105 0.026560 0.000000
3.614000 -0.000000 -0.022099 0.026560 0.000000
3.616000 0.001534 -0.022014 0.097227 0.000000
3.618000 0.001534 0.001887 -0.057929 0.000000
3.620000 0.001534 0.001701 -0.133744 0.000000
3.622000 0.001534 -0.032103 -0.133744 0.000000
3.624000 -0.000000 -0.032050 -0.069995 0.000000
3.626000 0.001534 -0.037930 0.023005 0.000000
3.628000 0.001534 -0.027034 0.066882 0.000000
3.630000 0.003068 0.020512 -0.062826 0.000000
3.632000 0.001534 0.008303 -0.062826 0.000000
3.634000 0.001534 0.008289 -0.142344 0.000000
3.636000 -0.000000 -0.039303 0.016823 0.000000
3.638000 0.001534 -0.031619 0.093181 0.000000
3.640000 0.003068 -0.009705 0.093181 0.000000
3.642000 0.003068 -0.009576 0.076195 0.000000
3.644000 0.003068 0.039677 -0.040670 0.000000
3.646000 0.001534 0.023469 -0.078132 0.000000
3.648000 0.001534 -0.012075 0.022205 0.000000
3.650000 0.001534 -0.015351 0.022205 0.000000
3.652000 0.003068 -0.015318 0.091115 0.000000
3.654000 0.003068 0.000366 -0.013749 0.000000
3.656000 0.003068 0.014725 -0.110750 0.000000
3.658000 0.001534 -0.020062 -0.110750 0.000000
3.660000 0.001534 -0.020055 -0.080001 0.000000
3.662000 0.001534 -0.034306 0.015889 0.000000
3.664000 0.003068 -0.025864 0.093760 0.000000
3.666000 0.004602 0.020997 -0.014453 0.000000
3.668000 0.003068 0.023127 -0.014453 0.000000
3.670000 0.003068 0.023083 -0.127195 0.000000
3.672000 0.001534 -0.030275 0.003949 0.000000
3.674000 0.003068 -0.029717 0.091430 0.000000
3.676000 0.003068 -0.013178 0.091430 0.000000
3.678000 0.004602 -0.013065 0.086464 0.000000
3.680000 0.004602 0.031604 -0.019992 0.000000
3.682000 0.003068 0.029294 -0.091286 0.000000
3.684000 0.003068 -0.011158 0.002933 0.000000
3.686000 0.003068 -0.016609 0.002933 0.000000
3.688000 0.004602 -0.016583 0.084541 0.000000
3.690000 0.004602 -0.003371 0.079869 0.000000
3.692000 0.004602 0.029965 -0.114341 0.000000
3.694000 0.003068 -0.006970 -0.097659 0.000000
3.696000 0.003068 -0.026396 -0.097659 0.000000
3.698000 0.003068 -0.026363 0.011776 0.000000
3.700000 0.004602 -0.020382 0.083544 0.000000
3.702000 0.004602 0.019960 0.016511 0.000000
3.704000 0.004602 0.031448 0.016511 0.000000
3.706000 0.004602 0.031390 -0.122368 0.000000
3.708000 0.003068 -0.020918 -0.102201 0.000000
3.710000 0.003068 -0.041903 0.074600 0.000000
3.712000 0.004602 -0.026921 0.076049 0.000000
3.714000 0.006136 0.007603 0.076049 0.000000
3.716000 0.006136 0.007690 0.020778 0.000000
3.718000 0.004602 0.028503 -0.110941 0.000000
3.720000 0.004602 -0.019438 -0.010153 0.000000
3.722000 0.004602 -0.026712 -0.010153 0.000000
3.724000 0.004602 -0.026650 0.062489 0.000000
3.726000 0.006136 -0.015785 0.063123 0.000000
3.728000 0.006136 0.012831 -0.116345 0.000000
3.730000 0.004602 -0.014952 -0.111187 0.000000
3.732000 0.004602 -0.035139 -0.111187 0.000000
3.734000 0.004602 -0.035059 -0.012744 0.000000
3.736000 0.006136 -0.029792 0.076224 0.000000
3.738000 0.006136 0.005415 -0.008513 0.000000
3.740000 0.006136 0.025164 -0.008513 0.000000
3.742000 0.004602 0.025154 -0.123650 0.000000
3.744000 0.004602 -0.020127 -0.105333 0.000000
3.746000 0.004602 -0.041998 0.063011 0.000000
3.748000 0.006136 -0.026850 0.088823 0.000000
3.750000 0.006136 0.003996 0.088823 0.000000
3.752000 0.006136 0.004092 0.013006 0.000000
3.754000 0.006136 0.030606 -0.094281 0.000000
3.756000 0.004602 -0.016084 -0.012215 0.000000
3.758000 0.004602 -0.025729 0.059556 0.000000
3.760000 0.006136 -0.017687 0.059556 0.000000
3.762000 0.007670 -0.017595 0.082920 0.000000
3.764000 0.006136 0.011239 -0.094412 0.000000
3.766000 0.006136 -0.011396 -0.085446 0.000000
3.768000 0.004602 -0.031947 -0.010338 0.000000
3.770000 0.004602 -0.031056 -0.010338 0.000000
3.772000 0.006136 -0.030937 0.055812 0.000000
3.774000 0.007670 -0.016612 0.021548 0.000000
3.776000 0.007670 0.014808 -0.105410 0.000000
3.778000 0.006136 -0.010879 -0.105410 0.000000
3.780000 0.006136 -0.010870 -0.091403 0.000000
3.782000 0.006136 -0.036769 0.053186 0.000000
3.784000 0.006136 -0.022088 0.087038 0.000000
3.786000 0.007670 0.006856 0.087038 0.000000
3.788000 0.007670 0.006935 0.032969 0.000000
3.790000 0.006136 0.032192 -0.096648 0.000000
3.792000 0.006136 -0.001765 -0.012852 0.000000
3.794000 0.006136 -0.015628 0.055465 0.000000
3.796000 0.006136 -0.010119 0.090258 0.000000
3.798000 0.007670 0.012709 0.090258 0.000000
3.800000 0.007670 0.012731 -0.080126 0.000000
3.802000 0.007670 -0.005613 -0.072741 0.000000
3.804000 0.006136 -0.023702 -0.072741 0.000000
3.806000 0.006136 -0.023674 -0.007801 0.000000
3.808000 0.007670 -0.023338 0.050308 0.000000
3.810000 0.007670 -0.012854 0.046404 0.000000
3.812000 0.007670 0.020872 -0.080952 0.000000
3.814000 0.007670 0.000053 -0.080952 0.000000
3.816000 0.006136 0.000026 -0.083018 0.000000
3.818000 0.006136 -0.028499 0.046265 0.000000
3.820000 0.007670 -0.019287 0.089367 0.000000
3.822000 0.007670 0.005523 0.026629 0.000000
3.824000 0.007670 0.027191 0.026629 0.000000
3.826000 0.007670 0.027164 -0.088526 0.000000
3.828000 0.007670 -0.001171 -0.024091 0.000000
3.830000 0.006136 -0.016900 0.037532 0.000000
3.832000 0.007670 -0.012205 0.077674 0.000000
3.834000 0.009204 0.009757 0.077674 0.000000
3.836000 0.007670 0.009783 -0.083425 0.000000
3.838000 0.007670 -0.000621 -0.072770 0.000000
3.840000 0.007670 -0.019509 -0.017029 0.000000
3.842000 0.007670 -0.021643 -0.017029 0.000000
3.844000 0.007670 -0.021581 0.030215 0.000000
3.846000 0.009204 -0.012596 0.023004 0.000000
3.848000 0.009204 0.021421 -0.072550 0.000000
3.850000 0.007670 0.002363 -0.072550 0.000000
3.852000 0.007670 0.002331 -0.072688 0.000000
3.854000 0.007670 -0.026534 -0.024193 0.000000
3.856000 0.007670 -0.029659 0.080462 0.000000
3.858000 0.009204 -0.007079 0.024889 0.000000
3.860000 0.009204 0.016617 0.024889 0.000000
3.862000 0.007670 0.016635 -0.066432 0.000000
3.864000 0.007670 -0.004694 -0.026452 0.000000
3.866000 0.007670 -0.022403 0.025320 0.000000
3.868000 0.007670 -0.020316 0.064757 0.000000
3.870000 0.009204 -0.003038 0.064757 0.000000
3.872000 0.009204 -0.002970 0.008440 0.000000
3.874000 0.007670 0.021614 -0.054061 0.000000
3.876000 0.007670 -0.008496 -0.029665 0.000000
3.878000 0.007670 -0.020413 -0.029665 0.000000
3.880000 0.007670 -0.020387 0.024088 0.000000
3.882000 0.009204 -0.015876 0.016245 0.000000
3.884000 0.009204 0.012490 -0.077288 0.000000
3.886000 0.009204 -0.002265 -0.057771 0.000000
3.888000 0.007670 -0.022292 -0.057771 0.000000
3.890000 0.007670 -0.022263 -0.031570 0.000000
3.892000 0.009204 -0.030035 0.052440 0.000000
3.894000 0.009204 -0.011222 0.012117 0.000000
3.896000 0.009204 0.009707 0.012117 0.000000
3.898000 0.009204 0.009748 -0.057390 0.000000
3.900000 0.007670 -0.004734 -0.017342 0.000000
3.902000 0.007670 -0.020347 0.011045 0.000000
3.904000 0.009204 -0.020273 0.044022 0.000000
3.906000 0.009204 -0.008435 0.044022 0.000000
3.908000 0.009204 -0.008360 0.012418 0.000000
3.910000 0.009204 0.013714 -0.047341 0.000000
3.912000 0.007670 -0.010882 -0.015301 0.000000
3.914000 0.007670 -0.019912 -0.015301 0.000000
3.916000 0.009204 -0.019874 0.008532 0.000000
3.918000 0.009204 -0.017578 0.011692 0.000000
3.920000 0.009204 0.006009 -0.048447 0.000000
3.922000 0.009204 -0.001754 -0.048031 0.000000
3.924000 0.007670 -0.017555 -0.048031 0.000000
3.926000 0.007670 -0.017530 -0.011478 0.000000
3.928000 0.009204 -0.024442 0.033483 0.000000
3.930000 0.009204 -0.010238 0.008211 0.000000
3.932000 0.009204 0.007557 0.008211 0.000000
3.934000 0.009204 0.007589 -0.040993 0.000000
3.936000 0.009204 -0.001815 -0.043357 0.000000
3.938000 0.007670 -0.017039 0.000776 0.000000
3.940000 0.009204 -0.018727 0.031655 0.000000
3.942000 0.009204 -0.007584 0.031655 0.000000
3.944000 0.009204 -0.007522 0.010578 0.000000
3.946000 0.009204 0.012754 -0.035639 0.000000
3.948000 0.009204 -0.007142 -0.003527 0.000000
3.950000 0.007670 -0.014433 0.006266 0.000000
3.952000 0.009204 -0.014136 0.006266 0.000000
3.954000 0.009204 -0.014090 0.033053 0.000000
3.956000 0.009204 -0.002306 -0.016083 0.000000
3.958000 0.009204 0.000477 -0.025551 0.000000
3.960000 0.009204 -0.008215 -0.025551 0.000000
3.962000 0.009204 -0.008205 -0.004716 0.000000
3.964000 0.009204 -0.013990 0.028215 0.000000
3.966000 0.009204 -0.003570 0.022188 0.000000
3.968000 0.009204 0.011673 -0.005839 0.000000
3.970000 0.009204 0.007580 -0.005839 0.000000
3.972000 0.009204 0.007548 -0.018048 0.000000
3.974000 0.009204 -0.006335 0.000999 0.000000
3.976000 0.009204 -0.010936 0.012671 0.000000
3.978000 0.009204 -0.005310 0.012671 0.000000
3.980000 0.009204 -0.005285 0.006764 0.000000
3.982000 0.009204 0.009545 -0.020892 0.000000
3.984000 0.009204 -0.003331 0.000386 0.000000
3.986000 0.009204 -0.009115 -0.004746 0.000000
3.988000 0.009204 -0.010232 -0.004746 0.000000
3.990000 0.009204 -0.010210 0.002557 0.000000
3.992000 0.009204 -0.003888 -0.000552 0.000000
3.994000 0.009204 0.004140 -0.015090 0.000000
3.996000 0.009204 -0.002202 -0.004275 0.000000
3.998000 0.009204 -0.007269 -0.004275 0.000000
4.000000 0.009204 -0.007269 -0.009766 0.000000
4.002000 0.009204 -0.005480 0.004028 0.000000
4.004000 0.009204 0.004180 0.012952 0.000000
4.006000 0.009204 0.006875 0.012952 0.000000
4.008000 0.009204 0.006859 -0.008410 0.000000
4.010000 0.009204 -0.001695 -0.016907 0.000000
4.012000 0.009204 -0.009197 -0.003881 0.000000
4.014000 0.009204 -0.007989 -0.003219 0.000000
4.016000 0.009204 0.000326 -0.003219 0.000000
4.018000 0.009204 0.000341 -0.007606 0.000000
4.020000 0.009204 -0.004668 -0.014031 0.000000
4.022000 0.009204 -0.011195 -0.018603 0.000000
4.024000 0.009204 -0.014291 -0.018603 0.000000
4.026000 0.009204 -0.014259 -0.021045 0.000000
4.028000 0.009204 -0.012726 0.009385 0.000000
4.030000 0.009204 -0.000913 0.004726 0.000000
4.032000 0.009204 -0.001505 -0.015752 0.000000
4.034000 0.009204 -0.008246 -0.015752 0.000000
4.036000 0.009204 -0.008237 -0.026268 0.000000
4.038000 0.009204 -0.014359 -0.011598 0.000000
4.040000 0.009204 -0.006773 0.016510 0.000000
4.042000 0.009204 0.001625 0.016510 0.000000
4.044000 0.009204 0.001645 0.012017 0.000000
4.046000 0.009204 -0.000025 -0.030468 0.000000
4.048000 0.009204 -0.010289 -0.037117 0.000000
4.050000 0.009204 -0.013548 -0.009796 0.000000
4.052000 0.009204 -0.008155 -0.009796 0.000000
4.054000 0.009204 -0.008113 0.024708 0.000000
4.056000 0.009204 0.004284 -0.011323 0.000000
4.058000 0.009204 -0.006319 -0.028515 0.000000
4.060000 0.009204 -0.014756 -0.028515 0.000000
4.062000 0.009204 -0.014735 -0.041217 0.000000
4.064000 0.009204 -0.018390 0.035366 0.000000
4.066000 0.009204 -0.001441 0.026944 0.000000
4.068000 0.009204 0.001980 -0.015357 0.000000
4.070000 0.009204 -0.007448 -0.039386 0.000000
4.072000 0.009204 -0.016388 -0.039386 0.000000
4.074000 0.009204 -0.016363 0.000197 0.000000
4.076000 0.009204 -0.008635 0.036318 0.000000
4.078000 0.009204 0.004447 0.035084 0.000000
4.080000 0.009204 0.008535 0.035084 0.000000
4.082000 0.009204 0.008521 -0.047017 0.000000
4.084000 0.009204 -0.011298 -0.057294 0.000000
4.086000 0.007670 -0.018496 -0.001528 0.000000
4.088000 0.007670 -0.012734 -0.001528 0.000000
4.090000 0.009204 -0.012680 0.033125 0.000000
4.092000 0.009204 0.003852 -0.010645 0.000000
4.094000 0.009204 -0.002102 -0.048178 0.000000
4.096000 0.007670 -0.014324 -0.057178 0.000000
4.098000 0.007670 -0.020795 -0.057178 0.000000
4.100000 0.007670 -0.020746 0.045259 0.000000
4.102000 0.007670 0.001491 0.055539 0.000000
4.104000 0.007670 0.013239 -0.004795 0.000000
4.106000 0.007670 0.003398 -0.004795 0.000000
4.108000 0.007670 0.003362 -0.055461 0.000000
4.110000 0.007670 -0.015646 0.010748 0.000000
4.112000 0.007670 -0.009567 0.056746 0.000000
4.114000 0.007670 0.007716 0.064101 0.000000
4.116000 0.007670 0.019504 0.064101 0.000000
4.118000 0.007670 0.019462 -0.007296 0.000000
4.120000 0.007670 0.005458 -0.063981 0.000000
4.122000 0.007670 -0.010096 0.013373 0.000000
4.124000 0.007670 -0.006492 0.013373 0.000000
4.126000 0.007670 -0.006484 0.056709 0.000000
4.128000 0.007670 0.012127 -0.009221 0.000000
4.130000 0.007670 0.004845 -0.071524 0.000000
4.132000 0.007670 -0.013152 -0.074020 0.000000
4.134000 0.007670 -0.022096 -0.074020 0.000000
4.136000 0.007670 -0.022065 0.011710 0.000000
4.138000 0.007670 -0.012762 0.073415 0.000000
4.140000 0.007670 0.016270 -0.018434 0.000000
4.142000 0.007670 0.006058 -0.082836 0.000000
4.144000 0.007670 -0.014146 0.008158 0.000000
4.146000 0.007670 -0.010752 0.008158 0.000000
4.148000 0.007670 -0.010724 0.062665 0.000000
4.150000 0.007670 0.008976 0.081619 0.000000
4.152000 0.007670 0.029676 0.081619 0.000000
4.154000 0.007670 0.029618 -0.021414 0.000000
4.156000 0.007670 0.009134 -0.073719 0.000000
4.158000 0.007670 -0.011668 0.018844 0.000000
4.160000 0.007670 -0.008229 0.067492 0.000000
4.162000 0.007670 0.007799 0.067492 0.000000
4.164000 0.007670 0.007798 -0.020830 0.000000
4.166000 0.007670 0.001734 -0.090405 0.000000
4.168000 0.007670 -0.019949 -0.071492 0.000000
4.170000 0.006136 -0.028279 -0.071492 0.000000
4.172000 0.007670 -0.028227 0.018025 0.000000
4.174000 0.007670 -0.018330 0.078765 0.000000
4.176000 0.007670 0.016425 -0.028288 0.000000
4.178000 0.007670 0.005112 -0.098539 0.000000
4.180000 0.006136 -0.021733 -0.098539 0.000000
4.182000 0.006136 -0.021740 0.006969 0.000000
4.184000 0.007670 -0.019138 0.075808 0.000000
4.186000 0.007670 0.001184 0.080012 0.000000
4.188000 0.007670 0.027663 -0.036242 0.000000
4.190000 0.007670 0.011415 -0.036242 0.000000
4.192000 0.006136 0.011331 -0.083890 0.000000
4.194000 0.006136 -0.017924 0.011324 0.000000
4.196000 0.006136 -0.014795 0.081220 0.000000
4.198000 0.007670 0.004717 0.081220 0.000000
4.200000 0.007670 0.004742 0.076230 0.000000
4.202000 0.006136 0.037451 -0.105292 0.000000
4.204000 0.006136 -0.005258 -0.079914 0.000000
4.206000 0.006136 -0.022361 0.015839 0.000000
4.208000 0.006136 -0.017585 0.015839 0.000000
4.210000 0.007670 -0.017536 0.077978 0.000000
4.212000 0.007670 0.026330 -0.046953 0.000000
4.214000 0.006136 0.006151 -0.116732 0.000000
4.216000 0.006136 -0.027244 -0.116732 0.000000
4.218000 0.006136 -0.027256 -0.080946 0.000000
4.220000 0.006136 -0.038543 0.091793 0.000000
4.222000 0.006136 -0.011044 0.066573 0.000000
4.224000 0.007670 0.021283 -0.048880 0.000000
4.226000 0.006136 0.001893 -0.048880 0.000000
4.228000 0.004602 0.001852 -0.079000 0.000000
4.230000 0.004602 -0.026240 0.027212 0.000000
4.232000 0.006136 -0.020424 0.096367 0.000000
4.234000 0.006136 0.001097 0.096367 0.000000
4.236000 0.006136 0.001152 0.063129 0.000000
4.238000 0.006136 0.039839 -0.125460 0.000000
4.240000 0.004602 -0.010076 -0.076432 0.000000
4.242000 0.004602 -0.026803 0.036375 0.000000
4.244000 0.004602 -0.019585 0.036375 0.000000
4.246000 0.006136 -0.019520 0.064780 0.000000
4.248000 0.006136 0.032006 -0.051210 0.000000
4.250000 0.004602 0.009502 -0.128957 0.000000
4.252000 0.004602 -0.028365 -0.128957 0.000000
4.254000 0.004602 -0.028387 -0.071382 0.000000
4.256000 0.004602 -0.040218 0.103048 0.000000
4.258000 0.006136 -0.011120 0.060431 0.000000
4.260000 0.006136 0.024050 -0.047761 0.000000
4.262000 0.004602 0.004340 -0.047761 0.000000
4.264000 0.004602 0.004289 -0.056905 0.000000
4.266000 0.004602 -0.025002 0.045951 0.000000
4.268000 0.004602 -0.019211 0.115908 0.000000
4.270000 0.006136 0.004606 0.060926 0.000000
4.272000 0.006136 0.036192 0.060926 0.000000
4.274000 0.004602 0.036132 -0.126782 0.000000
4.276000 0.003068 -0.019836 -0.051903 0.000000
4.278000 0.003068 -0.029385 0.053343 0.000000
4.280000 0.004602 -0.018638 0.053343 0.000000
4.282000 0.004602 -0.018566 0.107486 0.000000
4.284000 0.004602 0.010935 -0.065892 0.000000
4.286000 0.004602 0.003405 -0.129724 0.000000
4.288000 0.003068 -0.027546 -0.048928 0.000000
4.290000 0.003068 -0.032228 -0.048928 0.000000
4.292000 0.004602 -0.032154 0.100486 0.000000
4.294000 0.004602 0.006129 0.051713 0.000000
4.296000 0.004602 0.035447 -0.064971 0.000000
4.298000 0.004602 0.011049 -0.064971 0.000000
4.300000 0.003068 0.010948 -0.136142 0.000000
4.302000 0.003068 -0.034849 0.071583 0.000000
4.304000 0.004602 -0.022470 0.112550 0.000000
4.306000 0.004602 0.008295 0.035053 0.000000
4.308000 0.004602 0.034147 -0.123806 0.000000
4.310000 0.003068 -0.012194 -0.123806 0.000000
4.312000 0.003068 -0.012263 -0.034774 0.000000
4.314000 0.003068 -0.025168 0.070557 0.000000
4.316000 0.003068 -0.013855 0.070557 0.000000
4.318000 0.004602 -0.013783 0.109886 0.000000
4.320000 0.004602 0.020462 -0.091757 0.000000
4.322000 0.003068 0.002524 -0.127134 0.000000
4.324000 0.001534 -0.029163 -0.037415 0.000000
4.326000 0.001534 -0.032014 -0.037415 0.000000
4.328000 0.003068 -0.031940 0.102959 0.000000
4.330000 0.004602 0.006537 0.011526 0.000000
4.332000 0.003068 0.027675 -0.121871 0.000000
4.334000 0.003068 -0.003343 -0.128800 0.000000
4.336000 0.001534 -0.036550 -0.128800 0.000000
4.338000 0.001534 -0.036538 0.062523 0.000000
4.340000 0.003068 -0.024738 0.081968 0.000000
4.342000 0.003068 0.002683 0.004184 0.000000
4.344000 0.003068 0.023485 0.004184 0.000000
4.346000 0.001534 0.023461 -0.114901 0.000000
4.348000 0.001534 -0.025214 -0.022474 0.000000
4.350000 0.001534 -0.029988 0.071053 0.000000
4.352000 0.003068 -0.017006 0.093424 0.000000
4.354000 0.003068 0.009226 0.093424 0.000000
4.356000 0.003068 0.009262 -0.108166 0.000000
4.358000 0.001534 -0.011244 -0.106310 0.000000
4.360000 0.001534 -0.034382 -0.015015 0.000000
4.362000 0.001534 -0.033306 -0.015015 0.000000
4.364000 0.001534 -0.033207 0.071381 0.000000
4.366000 0.003068 -0.015717 -0.005526 0.000000
4.368000 0.001534 0.013836 -0.110868 0.000000
4.370000 0.001534 -0.013926 -0.095649 0.000000
4.372000 -0.000000 -0.037536 -0.095649 0.000000
4.374000 0.001534 -0.037480 0.070670 0.000000
4.376000 0.001534 -0.023638 0.074917 0.000000
4.378000 0.003068 0.003654 -0.021610 0.000000
4.380000 0.001534 0.018788 -0.021610 0.000000
4.382000 0.001534 0.018764 -0.122901 0.000000
4.384000 -0.000000 -0.019545 -0.000759 0.000000
4.386000 -0.000000 -0.028846 0.064321 0.000000
4.388000 0.001534 -0.018860 0.071153 0.000000
4.390000 0.001534 0.005149 0.071153 0.000000
4.392000 0.001534 0.005194 -0.102530 0.000000
4.394000 -0.000000 -0.016890 -0.076411 0.000000
4.396000 -0.000000 -0.033312 0.011137 0.000000
4.398000 -0.000000 -0.029424 0.053908 0.000000
4.400000 0.001534 -0.017228 0.053908 0.000000
4.402000 0.001534 -0.017126 -0.023513 0.000000
4.404000 0.001534 0.011067 -0.096957 0.000000
4.406000 -0.000000 -0.016627 -0.073396 0.000000
4.408000 -0.000000 -0.034607 -0.073396 0.000000
4.410000 -0.000000 -0.034548 0.051119 0.000000
4.412000 -0.000000 -0.021714 0.047108 0.000000
4.414000 0.001534 0.002320 -0.021261 0.000000
4.416000 -0.000000 0.013243 -0.088097 0.000000
4.418000 -0.000000 -0.014257 -0.088097 0.000000
4.420000 -0.001534 -0.014275 0.016587 0.000000
4.422000 -0.000000 -0.023082 0.042467 0.000000
4.424000 -0.000000 -0.014907 0.027741 0.000000
4.426000 -0.000000 0.002481 0.027741 0.000000
4.428000 -0.000000 0.002517 -0.074073 0.000000
4.430000 -0.001534 -0.013566 -0.056753 0.000000
4.432000 -0.001534 -0.024921 0.016572 0.000000
4.434000 -0.001534 -0.020965 0.038812 0.000000
4.436000 -0.000000 -0.010880 0.038812 0.000000
4.438000 -0.000000 -0.010815 -0.024810 0.000000
4.440000 -0.000000 0.011726 -0.047150 0.000000
4.442000 -0.001534 -0.007169 -0.045315 0.000000
4.444000 -0.001534 -0.021951 -0.045315 0.000000
4.446000 -0.001534 -0.021935 0.028347 0.000000
4.448000 -0.000000 -0.014567 0.014500 0.000000
4.450000 -0.000000 0.002877 -0.036576 0.000000
4.452000 -0.001534 0.006840 -0.036883 0.000000
4.454000 -0.001534 -0.009674 -0.036883 0.000000
4.456000 -0.001534 -0.009689 0.006189 0.000000
4.458000 -0.001534 -0.018596 0.027363 0.000000
4.460000 -0.001534 -0.012240 0.007435 0.000000
4.462000 -0.001534 0.002576 -0.029169 0.000000
4.464000 -0.001534 0.004695 -0.029169 0.000000
4.466000 -0.001534 0.004678 -0.031731 0.000000
4.468000 -0.001534 -0.019785 -0.004188 0.000000
4.470000 -0.001534 -0.021845 0.016195 0.000000
4.472000 -0.001534 -0.015072 0.016195 0.000000
4.474000 -0.001534 -0.015013 -0.031105 0.000000
4.476000 -0.001534 -0.000912 -0.007932 0.000000
4.478000 -0.003068 -0.008148 -0.014976 0.000000
4.480000 -0.003068 -0.017997 -0.018311 0.000000
4.482000 -0.003068 -0.021657 -0.018311 0.000000
4.484000 -0.001534 -0.021606 -0.001830 0.000000
4.486000 -0.001534 -0.004834 -0.032511 0.000000
4.488000 -0.003068 -0.002057 -0.011800 0.000000
4.490000 -0.003068 -0.010053 -0.011800 0.000000
4.492000 -0.003068 -0.010040 -0.030427 0.000000
4.494000 -0.003068 -0.022638 -0.024737 0.000000
4.496000 -0.003068 -0.021402 -0.011914 0.000000
4.498000 -0.003068 -0.010869 -0.015416 0.000000
4.500000 -0.003068 -0.004049 -0.015416 0.000000
4.502000 -0.003068 -0.004013 -0.006759 0.000000
4.504000 -0.003068 -0.017169 -0.027959 0.000000
4.506000 -0.003068 -0.022894 -0.043390 0.000000
4.508000 -0.003068 -0.024871 0.002015 0.000000
4.510000 -0.003068 -0.010258 0.002015 0.000000
4.512000 -0.003068 -0.010190 -0.001166 0.000000
4.514000 -0.003068 -0.009203 -0.016351 0.000000
4.516000 -0.003068 -0.016732 -0.036100 0.000000
4.518000 -0.003068 -0.022791 -0.036100 0.000000
4.520000 -0.003068 -0.022740 -0.022880 0.000000
4.522000 -0.003068 -0.013089 0.009206 0.000000
4.524000 -0.003068 -0.002930 0.007287 0.000000
4.526000 -0.004602 -0.003566 -0.050150 0.000000
4.528000 -0.004602 -0.017961 -0.050150 0.000000
4.530000 -0.004602 -0.017944 -0.073363 0.000000
4.532000 -0.004602 -0.026778 -0.028666 0.000000
4.534000 -0.004602 -0.020913 0.021234 0.000000
4.536000 -0.004602 -0.006949 0.021234 0.000000
4.538000 -0.004602 -0.006884 -0.030777 0.000000
4.540000 -0.004602 -0.018857 -0.062076 0.000000
4.542000 -0.004602 -0.029283 -0.064019 0.000000
4.544000 -0.004602 -0.032234 -0.010248 0.000000
4.546000 -0.004602 -0.023496 -0.010248 0.000000
4.548000 -0.004602 -0.023383 0.039324 0.000000
4.550000 -0.004602 -0.007292 -0.028016 0.000000
4.552000 -0.004602 -0.015347 -0.063478 0.000000
4.554000 -0.004602 -0.026855 -0.063478 0.000000
4.556000 -0.006136 -0.026797 -0.006703 0.000000
4.558000 -0.006136 -0.018727 0.045732 0.000000
4.560000 -0.004602 0.000203 0.052328 0.000000
4.562000 -0.004602 0.008276 -0.032474 0.000000
4.564000 -0.006136 -0.005886 -0.032474 0.000000
4.566000 -0.006136 -0.005909 -0.071649 0.000000
4.568000 -0.006136 -0.022197 0.013406 0.000000
4.570000 -0.006136 -0.015187 0.062579 0.000000
4.572000 -0.006136 0.004775 0.062579 0.000000
4.574000 -0.006136 0.004802 -0.038857 0.000000
4.576000 -0.006136 -0.011106 -0.091805 0.000000
4.578000 -0.006136 -0.028583 -0.078575 0.000000
4.580000 -0.006136 -0.034361 0.015555 0.000000
4.582000 -0.006136 -0.023137 0.015555 0.000000
4.584000 -0.006136 -0.023026 0.058389 0.000000
4.586000 -0.006136 0.008985 -0.049814 0.000000
4.588000 -0.006136 -0.009316 -0.099777 0.000000
4.590000 -0.007670 -0.029146 0.027993 0.000000
4.592000 -0.007670 -0.019634 0.027993 0.000000
4.594000 -0.006136 -0.019553 0.086069 0.000000
4.596000 -0.006136 0.008351 0.055344 0.000000
4.598000 -0.006136 0.025569 -0.068440 0.000000
4.600000 -0.007670 -0.001304 -0.068440 0.000000
4.602000 -0.007670 -0.001379 -0.074107 0.000000
4.604000 -0.007670 -0.020325 0.026991 0.000000
4.606000 -0.007670 -0.012234 0.098774 0.000000
4.608000 -0.006136 0.012719 -0.075976 0.000000
4.610000 -0.007670 -0.004716 -0.075976 0.000000
4.612000 -0.007670 -0.004748 -0.119440 0.000000
4.614000 -0.007670 -0.029266 -0.059219 0.000000
4.616000 -0.007670 -0.031705 0.034587 0.000000
4.618000 -0.007670 -0.019685 0.034587 0.000000
4.620000 -0.007670 -0.019585 0.048368 0.000000
4.622000 -0.007670 0.023706 -0.092033 0.000000
4.624000 -0.007670 -0.007788 -0.139451 0.000000
4.626000 -0.009204 -0.037514 -0.059219 0.000000
4.628000 -0.009204 -0.041355 -0.059219 0.000000
4.630000 -0.007670 -0.041246 0.105427 0.000000
4.632000 -0.007670 0.000605 0.028504 0.000000
4.634000 -0.007670 0.025208 -0.100947 0.000000
4.636000 -0.009204 -0.010074 -0.100947 0.000000
4.638000 -0.009204 -0.010121 -0.047659 0.000000
4.640000 -0.009204 -0.030452 0.039484 0.000000
4.642000 -0.009204 -0.023135 0.102556 0.000000
4.644000 -0.007670 0.008319 0.016240 0.000000
4.646000 -0.009204 0.026736 0.016240 0.000000
4.648000 -0.009204 0.026684 -0.138862 0.000000
4.650000 -0.010738 -0.027319 -0.035931 0.000000
4.652000 -0.009204 -0.033276 0.053643 0.000000
4.654000 -0.009204 -0.022018 0.009271 0.000000
4.656000 -0.007670 0.011240 0.009271 0.000000
4.658000 -0.009204 0.011264 -0.128293 0.000000
4.660000 -0.010738 -0.026483 -0.135629 0.000000
4.662000 -0.010738 -0.052487 -0.031215 0.000000
4.664000 -0.010738 -0.050158 -0.031215 0.000000
4.666000 -0.009204 -0.049988 0.091393 0.000000
4.668000 -0.009204 -0.000214 -0.017681 0.000000
4.670000 -0.009204 0.013636 -0.141290 0.000000
4.672000 -0.010738 -0.027307 -0.024932 0.000000
4.674000 -0.010738 -0.039969 -0.024932 0.000000
4.676000 -0.010738 -0.039874 0.075000 0.000000
4.678000 -0.009204 -0.027820 0.085677 0.000000
4.680000 -0.009204 0.005385 -0.037359 0.000000
4.682000 -0.010738 0.019514 -0.037359 0.000000
4.684000 -0.010738 0.019486 -0.123569 0.000000
4.686000 -0.012272 -0.034519 -0.013730 0.000000
4.688000 -0.010738 -0.037452 0.077111 0.000000
4.690000 -0.010738 -0.023097 -0.051387 0.000000
4.692000 -0.009204 0.001637 -0.051387 0.000000
4.694000 -0.010738 0.001683 -0.139438 0.000000
4.696000 -0.012272 -0.033175 -0.100397 0.000000
4.698000 -0.012272 -0.051747 0.004173 0.000000
4.700000 -0.010738 -0.045962 0.004173 0.000000
4.702000 -0.010738 -0.045782 0.042863 0.000000
4.704000 -0.010738 -0.008534 -0.065963 0.000000
4.706000 -0.010738 -0.000315 -0.137163 0.000000
4.708000 -0.012272 -0.036172 -0.088112 0.000000
4.710000 -0.012272 -0.054559 -0.088112 0.000000
4.712000 -0.012272 -0.054418 0.074701 0.000000
4.714000 -0.010738 -0.033063 0.028401 0.000000
4.716000 -0.010738 -0.005997 -0.075211 0.000000
4.718000 -0.012272 0.000318 -0.080160 0.000000
4.720000 -0.012272 -0.031956 -0.080160 0.000000
4.722000 -0.012272 -0.031902 0.028799 0.000000
4.724000 -0.012272 -0.032618 0.065755 0.000000
4.726000 -0.010738 -0.018735 0.015158 0.000000
4.728000 -0.010738 0.000770 0.015158 0.000000
4.730000 -0.012272 0.000830 -0.096118 0.000000
4.732000 -0.013806 -0.024545 -0.060721 0.000000
4.734000 -0.013806 -0.035427 0.027871 0.000000
4.736000 -0.012272 -0.027768 -0.007208 0.000000
4.738000 -0.012272 -0.006053 -0.007208 0.000000
4.740000 -0.012272 -0.005978 -0.071529 0.000000
4.742000 -0.012272 -0.001331 -0.067147 0.000000
4.744000 -0.013806 -0.025076 -0.049772 0.000000
4.746000 -0.013806 -0.038159 -0.049772 0.000000
4.748000 -0.012272 -0.038073 0.055815 0.000000
4.750000 -0.012272 -0.019813 -0.013066 0.000000
4.752000 -0.012272 -0.003484 -0.069894 0.000000
4.754000 -0.013806 -0.009101 -0.039413 0.000000
4.756000 -0.013806 -0.030323 -0.039413 0.000000
4.758000 -0.013806 -0.030263 0.012079 0.000000
4.760000 -0.013806 -0.030017 0.041030 0.000000
4.762000 -0.012272 -0.015431 -0.022305 0.000000
4.764000 -0.012272 0.000107 -0.022305 0.000000
4.766000 -0.013806 0.000156 -0.038101 0.000000
4.768000 -0.013806 -0.021205 -0.022945 0.000000
4.770000 -0.013806 -0.029254 0.009247 0.000000
4.772000 -0.013806 -0.025423 -0.032205 0.000000
4.774000 -0.013806 -0.006839 -0.032205 0.000000
4.776000 -0.013806 -0.006773 -0.062251 0.000000
4.778000 -0.013806 -0.013192 -0.032952 0.000000
4.780000 -0.013806 -0.025402 -0.014356 0.000000
4.782000 -0.013806 -0.031327 -0.011922 0.000000
4.784000 -0.013806 -0.023997 -0.011922 0.000000
4.786000 -0.013806 -0.023891 -0.048763 0.000000
4.788000 -0.013806 -0.008609 -0.042478 0.000000
4.790000 -0.013806 -0.014171 -0.031648 0.000000
4.792000 -0.013806 -0.025537 -0.031648 0.000000
4.794000 -0.013806 -0.025468 -0.026158 0.000000
4.796000 -0.013806 -0.031680 -0.033079 0.000000
4.798000 -0.013806 -0.027475 -0.045544 0.000000
4.800000 -0.013806 -0.015307 -0.029264 0.000000
4.802000 -0.013806 -0.024036 -0.029264 0.000000
4.804000 -0.013806 -0.023951 -0.025245 0.000000
4.806000 -0.013806 -0.031211 -0.033482 0.000000
4.808000 -0.013806 -0.032265 -0.047784 0.000000
4.810000 -0.013806 -0.029107 -0.047784 0.000000
4.812000 -0.013806 -0.028980 0.002720 0.000000
4.814000 -0.015340 -0.009523 -0.004300 0.000000
4.816000 -0.015340 -0.014117 -0.032986 0.000000
4.818000 -0.015340 -0.023227 -0.055856 0.000000
4.820000 -0.015340 -0.025378 -0.055856 0.000000
4.822000 -0.015340 -0.025293 -0.039504 0.000000
4.824000 -0.015340 -0.015232 0.004457 0.000000
4.826000 -0.015340 -0.007039 0.012336 0.000000
4.828000 -0.015340 -0.010346 0.012336 0.000000
4.830000 -0.015340 -0.010308 -0.073074 0.000000
4.832000 -0.015340 -0.027298 -0.052281 0.000000
4.834000 -0.015340 -0.028698 -0.014091 0.000000
4.836000 -0.015340 -0.019281 0.016808 0.000000
4.838000 -0.015340 -0.015120 0.016808 0.000000
4.840000 -0.015340 -0.015042 -0.054606 0.000000
4.842000 -0.015340 -0.027858 -0.089913 0.000000
4.844000 -0.015340 -0.038045 -0.057636 0.000000
4.846000 -0.015340 -0.036758 0.040711 0.000000
4.848000 -0.015340 -0.013612 0.040711 0.000000
4.850000 -0.015340 -0.013491 0.016035 0.000000
4.852000 -0.015340 -0.009020 -0.064479 0.000000
4.854000 -0.015340 -0.024795 -0.056673 0.000000
4.856000 -0.015340 -0.030362 -0.056673 0.000000
4.858000 -0.015340 -0.030267 0.026277 0.000000
4.860000 -0.015340 -0.013655 0.053642 0.000000
4.862000 -0.015340 0.004598 0.017028 0.000000
4.864000 -0.015340 0.003868 -0.112390 0.000000
4.866000 -0.015340 -0.024371 -0.112390 0.000000
4.868000 -0.016874 -0.024359 -0.055315 0.000000
4.870000 -0.016874 -0.030665 0.036204 0.000000
4.872000 -0.015340 -0.015929 0.071561 0.000000
4.874000 -0.015340 0.006866 0.071561 0.000000
4.876000 -0.015340 0.006914 -0.092788 0.000000
4.878000 -0.016874 -0.023490 -0.116216 0.000000
4.880000 -0.016874 -0.039526 -0.040787 0.000000
4.882000 -0.016874 -0.036875 0.069400 0.000000
4.884000 -0.015340 -0.003588 0.069400 0.000000
4.886000 -0.015340 -0.003488 -0.002766 0.000000
4.888000 -0.016874 0.001391 -0.112140 0.000000
4.890000 -0.016874 -0.029405 -0.130058 0.000000
4.892000 -0.016874 -0.047447 0.057500 0.000000
4.894000 -0.016874 -0.025632 0.057500 0.000000
4.896000 -0.016874 -0.025486 0.073315 0.000000
4.898000 -0.015340 0.014015 -0.005311 0.000000
4.900000 -0.016874 0.011729 -0.126324 0.000000
4.902000 -0.016874 -0.024209 -0.126324 0.000000
4.904000 -0.016874 -0.024214 -0.024490 0.000000
4.906000 -0.016874 -0.027588 0.072705 0.000000
4.908000 -0.016874 -0.010269 0.081375 0.000000
4.910000 -0.016874 0.023820 -0.132234 0.000000
4.912000 -0.016874 -0.015504 -0.132234 0.000000
4.914000 -0.018408 -0.015535 -0.120957 0.000000
4.916000 -0.018408 -0.038662 -0.013156 0.000000
4.918000 -0.016874 -0.032981 0.083596 0.000000
4.920000 -0.016874 0.012578 0.083596 0.000000
4.922000 -0.016874 0.012639 -0.031781 0.000000
4.924000 -0.016874 0.009629 -0.139566 0.000000
4.926000 -0.018408 -0.032930 -0.111987 0.000000
4.928000 -0.018408 -0.050379 0.081084 0.000000
4.930000 -0.016874 -0.029685 0.081084 0.000000
4.932000 -0.016874 -0.029527 0.071625 0.000000
4.934000 -0.016874 0.021527 -0.045423 0.000000
4.936000 -0.018408 0.008439 -0.104568 0.000000
4.938000 -0.018408 -0.028592 -0.104568 0.000000
4.940000 -0.018408 -0.028586 0.016527 0.000000
4.942000 -0.018408 -0.029757 0.083735 0.000000
4.944000 -0.016874 -0.011613 0.057316 0.000000
4.946000 -0.016874 0.023197 -0.145094 0.000000
4.948000 -0.018408 -0.020880 -0.145094 0.000000
4.950000 -0.018408 -0.020896 -0.089658 0.000000
4.952000 -0.018408 -0.040516 0.021995 0.000000
4.954000 -0.018408 -0.032408 0.092677 0.000000
4.956000 -0.016874 -0.010237 0.092677 0.000000
4.958000 -0.016874 -0.010118 -0.083012 0.000000
4.960000 -0.018408 0.001562 -0.146510 0.000000
4.962000 -0.019942 -0.036672 -0.075371 0.000000
4.964000 -0.018408 -0.047226 0.081156 0.000000
4.966000 -0.018408 -0.024395 0.081156 0.000000
4.968000 -0.016874 -0.024242 0.011285 0.000000
4.970000 -0.016874 0.014309 -0.112874 0.000000
4.972000 -0.018408 -0.002097 -0.137984 0.000000
4.974000 -0.019942 -0.043237 0.038857 0.000000
4.976000 -0.018408 -0.041002 0.038857 0.000000
4.978000 -0.018408 -0.040858 0.069594 0.000000
4.980000 -0.016874 -0.019671 -0.018821 0.000000
4.982000 -0.018408 0.003102 -0.127662 0.000000
4.984000 -0.018408 -0.033903 -0.127662 0.000000
4.986000 -0.019942 -0.033839 -0.062511 0.000000
4.988000 -0.019942 -0.045958 0.035584 0.000000
4.990000 -0.018408 -0.034128 0.064756 0.000000
4.992000 -0.016874 -0.013686 -0.136165 0.000000
4.994000 -0.018408 -0.014886 -0.136165 0.000000
4.996000 -0.018408 -0.014816 -0.105165 0.000000
4.998000 -0.019942 -0.042605 -0.049288 0.000000
5.000000 -0.019942 -0.046534 0.049662 0.000000
5.002000 -0.018408 -0.024287 0.049662 0.000000
5.004000 -0.018408 -0.024127 -0.049104 0.000000
5.006000 -0.018408 0.000307 -0.141557 0.000000
5.008000 -0.019942 -0.020180 -0.088219 0.000000
5.010000 -0.019942 -0.044210 0.030264 0.000000
5.012000 -0.019942 -0.040665 0.030264 0.000000
5.014000 -0.018408 -0.040502 0.034728 0.000000
5.016000 -0.018408 -0.021129 -0.050311 0.000000
5.018000 -0.018408 -0.007024 -0.065024 0.000000
5.020000 -0.019942 -0.031098 -0.065024 0.000000
5.022000 -0.019942 -0.031012 -0.015591 0.000000
5.024000 -0.019942 -0.038745 0.022215 0.000000
5.026000 -0.018408 -0.030460 0.020401 0.000000
5.028000 -0.018408 -0.015206 -0.096675 0.000000
5.030000 -0.018408 -0.022411 -0.096675 0.000000
5.032000 -0.019942 -0.022324 -0.060413 0.000000
5.034000 -0.019942 -0.035543 -0.001001 0.000000
5.036000 -0.019942 -0.034311 0.013559 0.000000
5.038000 -0.018408 -0.026341 -0.050134 0.000000
5.040000 -0.018408 -0.008749 -0.050134 0.000000
5.042000 -0.018408 -0.008662 -0.077119 0.000000
5.044000 -0.019942 -0.022381 -0.057847 0.000000
5.046000 -0.019942 -0.035458 -0.004282 0.000000
5.048000 -0.019942 -0.033029 -0.004282 0.000000
5.050000 -0.018408 -0.032899 -0.017629 0.000000
5.052000 -0.018408 -0.017865 -0.041212 0.000000
5.054000 -0.019942 -0.007567 -0.041960 0.000000
5.056000 -0.019942 -0.017834 -0.008047 0.000000
5.058000 -0.019942 -0.028259 -0.008047 0.000000
5.060000 -0.019942 -0.028173 -0.006508 0.000000
5.062000 -0.019942 -0.027346 -0.015028 0.000000
5.064000 -0.019942 -0.017155 -0.018536 0.000000
5.066000 -0.019942 -0.015524 -0.018536 0.000000
5.068000 -0.019942 -0.015443 -0.031081 0.000000
5.070000 -0.019942 -0.026900 -0.021272 0.000000
5.072000 -0.019942 -0.029146 -0.027800 0.000000
5.074000 -0.019942 -0.027993 -0.038165 0.000000
5.076000 -0.019942 -0.014496 -0.038165 0.000000
5.078000 -0.019942 -0.014401 -0.008529 0.000000
5.080000 -0.019942 -0.012890 -0.019118 0.000000
5.082000 -0.019942 -0.020627 -0.043718 0.000000
5.084000 -0.019942 -0.025840 -0.043718 0.000000
5.086000 -0.019942 -0.025759 -0.028967 0.000000
5.088000 -0.019942 -0.018251 -0.031278 0.000000
5.090000 -0.019942 -0.011168 -0.011736 0.000000
5.092000 -0.019942 -0.011221 -0.052077 0.000000
5.094000 -0.019942 -0.026031 -0.052077 0.000000
5.096000 -0.019942 -0.025970 -0.074475 0.000000
5.098000 -0.019942 -0.034150 -0.040435 0.000000
5.100000 -0.019942 -0.027623 0.003989 0.000000
5.102000 -0.019942 -0.015026 -0.002985 0.000000
5.104000 -0.019942 -0.018143 -0.002985 0.000000
5.106000 -0.019942 -0.018062 -0.057016 0.000000
5.108000 -0.019942 -0.029779 -0.085993 0.000000
5.110000 -0.019942 -0.036128 0.008510 0.000000
5.112000 -0.019942 -0.016953 0.008510 0.000000
5.114000 -0.019942 -0.016836 0.020996 0.000000
5.116000 -0.019942 -0.006379 -0.014037 0.000000
5.118000 -0.019942 -0.012344 -0.066486 0.000000
5.120000 -0.019942 -0.026575 -0.043748 0.000000
5.122000 -0.019942 -0.026845 -0.043748 0.000000
5.124000 -0.019942 -0.026748 0.023051 0.000000
5.126000 -0.019942 -0.008158 0.035717 0.000000
5.128000 -0.019942 0.001699 -0.083215 0.000000
5.130000 -0.019942 -0.021052 -0.083215 0.000000
5.132000 -0.019942 -0.021026 -0.102720 0.000000
5.134000 -0.019942 -0.036837 -0.039329 0.000000
5.136000 -0.019942 -0.033801 0.030607 0.000000
5.138000 -0.019942 -0.015497 -0.027526 0.000000
5.140000 -0.019942 -0.015428 -0.027526 0.000000
5.142000 -0.019942 -0.015351 -0.102736 0.000000
5.144000 -0.019942 -0.036745 -0.106053 0.000000
5.146000 -0.019942 -0.046285 0.045892 0.000000
5.148000 -0.019942 -0.023051 0.045892 0.000000
5.150000 -0.019942 -0.022896 0.056647 0.000000
5.152000 -0.019942 0.005637 -0.033171 0.000000
5.154000 -0.019942 -0.006632 -0.120297 0.000000
