time ax ay az button
0.000000 -0.000000 0.000000 0.000000 0.000000
0.002000 -0.000000 0.000000 0.000000 0.000000
0.004000 -0.000000 0.000000 0.000000 0.000000
0.006000 -0.000000 0.000000 -0.058287 0.000000
0.008000 -0.000000 -0.058263 -0.058287 0.000000
0.010000 -0.000000 -0.058190 -0.057947 0.000000
0.012000 -0.000000 -0.058144 -0.038585 0.000000
0.014000 -0.000000 -0.039833 -0.020118 0.000000
0.016000 -0.000000 -0.021358 -0.020118 0.000000
0.018000 -0.000000 -0.021337 -0.032158 0.000000
0.020000 -0.000000 -0.031974 -0.076411 0.000000
0.022000 -0.000000 -0.074289 -0.071348 0.000000
0.024000 -0.000000 -0.071840 -0.059269 0.000000
0.026000 -0.000000 -0.060210 -0.059269 0.000000
0.028000 -0.000000 -0.060125 -0.062965 0.000000
0.030000 -0.000000 -0.063069 -0.066228 0.000000
0.032000 -0.000000 -0.066291 -0.047109 0.000000
0.034000 -0.000000 -0.048389 -0.045746 0.000000
0.036000 0.001534 -0.046082 -0.045746 0.000000
0.038000 0.001534 -0.046003 -0.087831 0.000000
0.040000 0.001534 -0.086821 -0.085632 0.000000
0.042000 0.001534 -0.086058 -0.087395 0.000000
0.044000 0.001534 -0.087672 -0.087395 0.000000
0.046000 0.001534 -0.087519 -0.099261 0.000000
0.048000 0.001534 -0.099171 -0.085191 0.000000
0.050000 0.001534 -0.086216 -0.060258 0.000000
0.052000 0.001534 -0.061914 -0.057650 0.000000
0.054000 0.001534 -0.058082 -0.057650 0.000000
0.056000 0.001534 -0.057939 -0.056232 0.000000
0.058000 0.001534 -0.056438 -0.059666 0.000000
0.060000 0.001534 -0.059727 -0.063071 0.000000
0.062000 0.001534 -0.063137 -0.063071 0.000000
0.064000 0.001534 -0.063020 -0.077632 0.000000
0.066000 0.001534 -0.077418 -0.080557 0.000000
0.068000 0.001534 -0.080741 -0.066731 0.000000
0.070000 0.001534 -0.067793 -0.071497 0.000000
0.072000 0.001534 -0.071566 -0.071497 0.000000
0.074000 0.001534 -0.071453 -0.072193 0.000000
0.076000 0.001534 -0.072393 -0.051857 0.000000
0.078000 0.001534 -0.053223 -0.059938 0.000000
0.080000 0.001534 -0.059834 -0.070471 0.000000
0.082000 0.001534 -0.070220 -0.070471 0.000000
0.084000 0.001534 -0.070131 -0.072759 0.000000
0.086000 0.001534 -0.072934 -0.078335 0.000000
0.088000 0.001534 -0.078384 -0.081861 0.000000
0.090000 0.001534 -0.082005 -0.081861 0.000000
0.092000 0.001534 -0.081891 -0.081344 0.000000
0.094000 0.001534 -0.081605 -0.063736 0.000000
0.096000 0.001534 -0.064964 -0.058108 0.000000
0.098000 0.001534 -0.058727 -0.057609 0.000000
0.100000 0.001534 -0.057911 -0.057609 0.000000
0.102000 0.001534 -0.057811 -0.048159 0.000000
0.104000 0.001534 -0.048621 -0.053774 0.000000
0.106000 0.001534 -0.053752 -0.063734 0.000000
0.108000 0.001534 -0.063463 -0.063734 0.000000
0.110000 0.001534 -0.063381 -0.065151 0.000000
0.112000 0.001534 -0.065330 -0.063360 0.000000
0.114000 0.001534 -0.063726 -0.061531 0.000000
0.116000 0.001534 -0.061939 -0.061461 0.000000
0.118000 0.001534 -0.061734 -0.061461 0.000000
0.120000 0.001534 -0.061649 -0.054193 0.000000
0.122000 0.001534 -0.054578 -0.046720 0.000000
0.124000 0.001534 -0.047336 -0.042565 0.000000
0.126000 0.001534 -0.043036 -0.058140 0.000000
0.128000 0.001534 -0.057582 -0.058140 0.000000
0.130000 -0.000000 -0.057536 -0.060615 0.000000
0.132000 -0.000000 -0.060763 -0.073685 0.000000
0.134000 -0.000000 -0.073325 -0.080460 0.000000
0.136000 -0.000000 -0.080456 -0.080460 0.000000
0.138000 -0.000000 -0.080369 -0.090198 0.000000
0.140000 -0.000000 -0.090234 -0.085902 0.000000
0.142000 -0.000000 -0.086578 -0.094167 0.000000
0.144000 -0.000000 -0.094192 -0.084165 0.000000
0.146000 -0.000000 -0.085094 -0.084165 0.000000
0.148000 -0.000000 -0.084977 -0.073516 0.000000
0.150000 -0.000000 -0.074061 -0.078948 0.000000
0.152000 -0.000000 -0.078948 -0.071096 0.000000
0.154000 -0.000000 -0.071754 -0.071096 0.000000
0.156000 -0.000000 -0.071654 -0.069364 0.000000
0.158000 -0.000000 -0.069613 -0.051498 0.000000
0.160000 -0.000000 -0.052693 -0.043767 0.000000
0.162000 -0.000000 -0.044516 -0.045736 0.000000
0.164000 -0.000000 -0.045985 -0.045736 0.000000
0.166000 -0.000000 -0.045950 -0.051227 0.000000
0.168000 -0.000000 -0.051424 -0.071368 0.000000
0.170000 -0.000000 -0.070761 -0.086711 0.000000
0.172000 -0.000000 -0.086339 -0.097545 0.000000
0.174000 -0.000000 -0.097344 -0.097545 0.000000
0.176000 -0.000000 -0.097255 -0.099479 0.000000
0.178000 -0.000000 -0.099590 -0.087923 0.000000
0.180000 -0.000000 -0.088781 -0.073110 0.000000
0.182000 -0.000000 -0.074149 -0.073110 0.000000
0.184000 -0.001534 -0.074051 -0.052057 0.000000
0.186000 -0.001534 -0.052867 -0.041461 0.000000
0.188000 -0.001534 -0.042417 -0.052361 0.000000
0.190000 -0.001534 -0.052233 -0.080208 0.000000
0.192000 -0.001534 -0.079256 -0.080208 0.000000
0.194000 -0.001534 -0.079220 -0.160307 0.000000
0.196000 -0.001534 -0.158657 -0.195712 0.000000
0.198000 -0.001534 -0.194530 -0.152410 0.000000
0.200000 -0.001534 -0.155308 -0.152410 0.000000
0.202000 -0.001534 -0.155076 -0.125651 0.000000
0.204000 -0.001534 -0.126750 -0.022625 0.000000
0.206000 -0.001534 -0.028091 -0.004488 0.000000
0.208000 -0.001534 -0.005746 -0.005306 0.000000
0.210000 -0.001534 -0.005409 -0.005306 0.000000
0.212000 -0.003068 -0.005434 -0.037214 0.000000
0.214000 -0.003068 -0.036595 -0.093329 0.000000
0.216000 -0.003068 -0.090787 -0.114586 0.000000
0.218000 -0.003068 -0.113936 -0.147425 0.000000
0.220000 -0.003068 -0.146267 -0.147425 0.000000
0.222000 -0.003068 -0.146131 -0.097915 0.000000
0.224000 -0.003068 -0.099598 -0.024981 0.000000
0.226000 -0.003068 -0.029154 -0.000000 0.000000
0.228000 -0.003068 -0.001602 -0.000000 0.000000
0.230000 -0.003068 -0.001597 0.032331 0.000000
0.232000 -0.003068 0.031211 0.006339 0.000000
0.234000 -0.003068 0.007500 -0.108289 0.000000
0.236000 -0.003068 -0.102466 -0.157276 0.000000
0.238000 -0.004602 -0.154911 -0.157276 0.000000
0.240000 -0.004602 -0.154813 -0.173339 0.000000
0.242000 -0.004602 -0.173158 -0.137647 0.000000
0.244000 -0.004602 -0.140068 -0.082111 0.000000
0.246000 -0.004602 -0.085596 -0.082111 0.000000
0.248000 -0.004602 -0.085443 -0.039937 0.000000
0.250000 -0.004602 -0.041455 0.036020 0.000000
0.252000 -0.004602 0.031362 0.016868 0.000000
0.254000 -0.004602 0.017512 -0.042715 0.000000
0.256000 -0.004602 -0.039718 -0.042715 0.000000
0.258000 -0.004602 -0.039753 -0.123413 0.000000
0.260000 -0.004602 -0.121177 -0.110069 0.000000
0.262000 -0.006136 -0.110974 -0.087972 0.000000
0.264000 -0.006136 -0.089550 -0.087972 0.000000
0.266000 -0.006136 -0.089446 -0.072924 0.000000
0.268000 -0.006136 -0.073656 -0.043393 0.000000
0.270000 -0.006136 -0.045368 -0.013740 0.000000
0.272000 -0.006136 -0.015655 -0.002611 0.000000
0.274000 -0.006136 -0.003383 -0.002611 0.000000
0.276000 -0.006136 -0.003430 -0.031993 0.000000
0.278000 -0.006136 -0.031221 -0.055923 0.000000
0.280000 -0.006136 -0.054982 -0.091604 0.000000
0.282000 -0.006136 -0.090219 -0.125155 0.000000
0.284000 -0.006136 -0.123963 -0.125155 0.000000
0.286000 -0.006136 -0.123876 -0.141386 0.000000
0.288000 -0.006136 -0.141417 -0.092368 0.000000
0.290000 -0.006136 -0.095396 -0.050827 0.000000
0.292000 -0.006136 -0.053208 -0.050827 0.000000
0.294000 -0.006136 -0.053136 -0.047089 0.000000
0.296000 -0.007670 -0.047218 -0.067622 0.000000
0.298000 -0.007670 -0.066903 -0.088173 0.000000
0.300000 -0.007670 -0.087512 -0.107069 0.000000
0.302000 -0.007670 -0.106605 -0.107069 0.000000
0.304000 -0.007670 -0.106503 -0.030923 0.000000
0.306000 -0.007670 -0.033426 -0.002508 0.000000
0.308000 -0.007670 -0.003985 -0.013055 0.000000
0.310000 -0.007670 -0.012584 -0.013055 0.000000
0.312000 -0.007670 -0.012593 -0.073139 0.000000
0.314000 -0.007670 -0.071598 -0.151536 0.000000
0.316000 -0.007670 -0.147849 -0.127496 0.000000
0.318000 -0.007670 -0.129146 -0.033871 0.000000
0.320000 -0.007670 -0.039294 -0.033871 0.000000
0.322000 -0.007670 -0.039224 0.106474 0.000000
0.324000 -0.007670 0.102543 0.045257 0.000000
0.326000 -0.007670 0.048330 -0.060896 0.000000
0.328000 -0.007670 -0.055357 -0.158293 0.000000
0.330000 -0.007670 -0.153385 -0.158293 0.000000
0.332000 -0.007670 -0.153218 -0.192908 0.000000
0.334000 -0.007670 -0.192261 -0.108249 0.000000
0.336000 -0.007670 -0.113109 0.011801 0.000000
0.338000 -0.007670 0.005360 0.011801 0.000000
0.340000 -0.007670 0.005414 -0.000505 0.000000
0.342000 -0.007670 -0.000495 -0.054686 0.000000
0.344000 -0.007670 -0.052449 -0.123802 0.000000
0.346000 -0.007670 -0.120338 -0.127526 0.000000
0.348000 -0.009204 -0.127430 -0.127526 0.000000
0.350000 -0.009204 -0.127211 -0.042947 0.000000
0.352000 -0.009204 -0.045589 -0.064550 0.000000
0.354000 -0.009204 -0.063369 -0.105704 0.000000
0.356000 -0.009204 -0.103482 -0.105704 0.000000
0.358000 -0.009204 -0.103296 -0.100352 0.000000
0.360000 -0.009204 -0.100910 -0.049523 0.000000
0.362000 -0.009204 -0.052684 0.011449 0.000000
0.364000 -0.007670 0.008067 0.048800 0.000000
0.366000 -0.007670 0.046852 0.048800 0.000000
0.368000 -0.007670 0.046906 -0.009708 0.000000
0.370000 -0.007670 -0.008192 -0.152628 0.000000
0.372000 -0.007670 -0.145062 -0.185380 0.000000
0.374000 -0.009204 -0.183680 -0.185380 0.000000
0.376000 -0.007670 -0.183435 -0.145388 0.000000
0.378000 -0.007670 -0.147026 -0.035317 0.000000
0.380000 -0.007670 -0.041723 -0.048149 0.000000
0.382000 -0.007670 -0.047931 -0.054040 0.000000
0.384000 -0.007670 -0.053995 -0.054040 0.000000
0.386000 -0.007670 -0.053794 -0.016320 0.000000
0.388000 -0.007670 -0.017228 -0.051890 0.000000
0.390000 -0.007670 -0.049377 -0.064260 0.000000
0.392000 -0.007670 -0.064032 -0.111582 0.000000
0.394000 -0.007670 -0.109970 -0.111582 0.000000
0.396000 -0.007670 -0.109739 -0.126964 0.000000
0.398000 -0.007670 -0.126813 -0.069692 0.000000
0.400000 -0.007670 -0.073166 0.004945 0.000000
0.402000 -0.007670 0.000994 0.004945 0.000000
0.404000 -0.007670 0.001133 -0.033044 0.000000
0.406000 -0.006136 -0.031188 -0.115270 0.000000
0.408000 -0.006136 -0.111379 -0.155305 0.000000
0.410000 -0.006136 -0.153799 -0.082831 0.000000
0.412000 -0.006136 -0.087126 -0.082831 0.000000
0.414000 -0.006136 -0.086807 0.098242 0.000000
0.416000 -0.006136 0.092602 0.123016 0.000000
0.418000 -0.004602 0.122622 0.016250 0.000000
0.420000 -0.004602 0.023075 0.016250 0.000000
0.422000 -0.004602 0.023119 -0.201767 0.000000
0.424000 -0.006136 -0.195680 -0.126781 0.000000
0.426000 -0.006136 -0.131004 -0.037911 0.000000
0.428000 -0.004602 -0.043176 0.085389 0.000000
0.430000 -0.004602 0.078550 0.085389 0.000000
0.432000 -0.003068 0.078639 0.035226 0.000000
0.434000 -0.003068 0.037179 -0.108492 0.000000
0.436000 -0.003068 -0.100705 -0.093460 0.000000
0.438000 -0.003068 -0.094216 -0.093460 0.000000
0.440000 -0.003068 -0.093929 -0.072656 0.000000
0.442000 -0.003068 -0.073649 -0.058155 0.000000
0.444000 -0.003068 -0.059132 -0.080733 0.000000
0.446000 -0.003068 -0.079693 -0.160228 0.000000
0.448000 -0.003068 -0.155883 -0.160228 0.000000
0.450000 -0.003068 -0.155434 -0.051157 0.000000
0.452000 -0.001534 -0.053946 -0.001679 0.000000
0.454000 -0.001534 -0.004401 0.045745 0.000000
0.456000 -0.001534 0.043111 -0.039548 0.000000
0.458000 -0.001534 -0.035466 -0.039548 0.000000
0.460000 -0.001534 -0.035157 -0.139315 0.000000
0.462000 -0.001534 -0.136279 -0.104091 0.000000
0.464000 -0.000000 -0.105874 -0.067801 0.000000
0.466000 -0.000000 -0.069756 -0.067801 0.000000
0.468000 -0.000000 -0.069443 -0.047685 0.000000
0.470000 0.001534 -0.048061 -0.060486 0.000000
0.472000 0.001534 -0.060177 -0.058868 0.000000
0.474000 0.001534 -0.059287 0.007156 0.000000
0.476000 0.001534 0.003837 0.007156 0.000000
0.478000 0.001534 0.004140 0.024183 0.000000
0.480000 0.003068 0.023819 -0.046902 0.000000
0.482000 0.003068 -0.042746 -0.107894 0.000000
0.484000 0.003068 -0.104411 -0.107894 0.000000
0.486000 0.003068 -0.104065 -0.134329 0.000000
0.488000 0.003068 -0.133624 -0.072130 0.000000
0.490000 0.003068 -0.075652 -0.023126 0.000000
0.492000 0.004602 -0.025756 -0.020576 0.000000
0.494000 0.004602 -0.020532 -0.020576 0.000000
0.496000 0.006136 -0.020168 -0.115956 0.000000
0.498000 0.006136 -0.113108 -0.124133 0.000000
0.500000 0.006136 -0.123745 -0.006529 0.000000
0.502000 0.006136 -0.012738 -0.006529 0.000000
0.504000 0.006136 -0.012379 0.051862 0.000000
0.506000 0.006136 0.050312 -0.053553 0.000000
0.508000 0.007670 -0.047713 -0.133975 0.000000
0.510000 0.007670 -0.129392 -0.174662 0.000000
0.512000 0.007670 -0.172547 -0.174662 0.000000
0.514000 0.007670 -0.171951 -0.006130 0.000000
0.516000 0.009204 -0.010888 0.133961 0.000000
0.518000 0.009204 0.127093 0.099654 0.000000
0.520000 0.010738 0.101983 -0.109690 0.000000
0.522000 0.010738 -0.098474 -0.109690 0.000000
0.524000 0.010738 -0.098002 -0.137131 0.000000
0.526000 0.010738 -0.136156 -0.084620 0.000000
0.528000 0.010738 -0.087551 -0.001893 0.000000
0.530000 0.012272 -0.006388 -0.001893 0.000000
0.532000 0.012272 -0.006051 -0.010142 0.000000
0.534000 0.013806 -0.009477 -0.083082 0.000000
0.536000 0.013806 -0.079021 -0.132307 0.000000
0.538000 0.013806 -0.129576 -0.059940 0.000000
0.540000 0.013806 -0.063708 -0.059940 0.000000
0.542000 0.013806 -0.063169 0.046561 0.000000
0.544000 0.015340 0.043709 0.102338 0.000000
0.546000 0.015340 0.100093 0.009355 0.000000
0.548000 0.016874 0.014832 0.009355 0.000000
0.550000 0.016874 0.015157 -0.121958 0.000000
0.552000 0.016874 -0.117991 -0.101745 0.000000
0.554000 0.016874 -0.102709 -0.048642 0.000000
0.556000 0.016874 -0.051517 0.019139 0.000000
0.558000 0.018408 0.015771 0.019139 0.000000
0.560000 0.018408 0.016229 -0.049404 0.000000
0.562000 0.018408 -0.046875 -0.079787 0.000000
0.564000 0.019942 -0.077749 -0.053557 0.000000
0.566000 0.019942 -0.054811 -0.053557 0.000000
0.568000 0.019942 -0.054349 0.068929 0.000000
0.570000 0.021476 0.065445 0.128323 0.000000
0.572000 0.021476 0.125804 0.093491 0.000000
0.574000 0.021476 0.095999 -0.068778 0.000000
0.576000 0.023010 -0.059501 -0.068778 0.000000
0.578000 0.023010 -0.059003 -0.130113 0.000000
0.580000 0.023010 -0.127986 -0.090237 0.000000
0.582000 0.023010 -0.092287 0.019520 0.000000
0.584000 0.024544 0.014006 0.116119 0.000000
0.586000 0.024544 0.110982 0.116119 0.000000
0.588000 0.026078 0.111216 0.004855 0.000000
0.590000 0.026078 0.008458 -0.067768 0.000000
0.592000 0.026078 -0.063342 -0.088860 0.000000
0.594000 0.026078 -0.087411 -0.088860 0.000000
0.596000 0.026078 -0.086898 -0.027059 0.000000
0.598000 0.027612 -0.028675 -0.004598 0.000000
0.600000 0.027612 -0.005129 -0.025321 0.000000
0.602000 0.027612 -0.024056 -0.088415 0.000000
0.604000 0.029146 -0.085016 -0.088415 0.000000
0.606000 0.029146 -0.084455 -0.062460 0.000000
0.608000 0.029146 -0.063100 0.000600 0.000000
0.610000 0.029146 -0.002573 0.109024 0.000000
0.612000 0.030680 0.103764 0.109024 0.000000
0.614000 0.030680 0.104082 0.039384 0.000000
0.616000 0.030680 0.042100 -0.073214 0.000000
0.618000 0.032214 -0.066854 -0.122844 0.000000
0.620000 0.032214 -0.119956 -0.106333 0.000000
0.622000 0.032214 -0.107208 -0.106333 0.000000
0.624000 0.033748 -0.106688 0.064392 0.000000
0.626000 0.033748 0.059579 0.143411 0.000000
0.628000 0.033748 0.140156 0.083672 0.000000
0.630000 0.035282 0.087613 -0.093002 0.000000
0.632000 0.035282 -0.083128 -0.093002 0.000000
0.634000 0.035282 -0.082639 -0.093041 0.000000
0.636000 0.035282 -0.092898 -0.029339 0.000000
0.638000 0.036816 -0.032773 0.070248 0.000000
0.640000 0.036816 0.065137 0.070248 0.000000
0.642000 0.036816 0.065421 0.026820 0.000000
0.644000 0.038350 0.028763 -0.076152 0.000000
0.646000 0.038350 -0.070214 -0.118367 0.000000
0.648000 0.038350 -0.115802 -0.045318 0.000000
0.650000 0.038350 -0.049187 -0.045318 0.000000
0.652000 0.038350 -0.048658 0.105278 0.000000
0.654000 0.039884 0.101419 0.186904 0.000000
0.656000 0.039884 0.183634 0.072929 0.000000
0.658000 0.039884 0.079724 0.072929 0.000000
0.660000 0.041417 0.079959 -0.078802 0.000000
0.662000 0.041417 -0.074083 -0.084419 0.000000
0.664000 0.041417 -0.084017 -0.034772 0.000000
0.666000 0.041417 -0.037426 0.080383 0.000000
0.668000 0.042951 0.075285 0.080383 0.000000
0.670000 0.042951 0.075599 0.036784 0.000000
0.672000 0.042951 0.038567 -0.030426 0.000000
0.674000 0.042951 -0.026389 -0.055785 0.000000
0.676000 0.044485 -0.054242 -0.055785 0.000000
0.678000 0.044485 -0.053803 0.014128 0.000000
0.680000 0.044485 0.011908 0.143278 0.000000
0.682000 0.046019 0.137291 0.127409 0.000000
0.684000 0.046019 0.129346 0.000871 0.000000
0.686000 0.046019 0.008250 0.000871 0.000000
0.688000 0.046019 0.008543 -0.075729 0.000000
0.690000 0.046019 -0.073289 -0.071835 0.000000
0.692000 0.046019 -0.072139 -0.051339 0.000000
0.694000 0.047553 -0.052485 0.015236 0.000000
0.696000 0.047553 0.012759 0.015236 0.000000
0.698000 0.047553 0.013138 0.003881 0.000000
0.700000 0.047553 0.004611 -0.016428 0.000000
0.702000 0.049087 -0.015141 -0.010219 0.000000
0.704000 0.049087 -0.010463 -0.010219 0.000000
0.706000 0.049087 -0.010140 0.060942 0.000000
0.708000 0.049087 0.058681 0.014152 0.000000
0.710000 0.049087 0.017385 -0.083864 0.000000
0.712000 0.049087 -0.077709 -0.074631 0.000000
0.714000 0.049087 -0.074628 -0.074631 0.000000
0.716000 0.050621 -0.074138 -0.012935 0.000000
0.718000 0.050621 -0.014710 0.089043 0.000000
0.720000 0.052155 0.083755 0.189439 0.000000
0.722000 0.052155 0.184732 0.189439 0.000000
0.724000 0.052155 0.184773 0.014613 0.000000
0.726000 0.052155 0.020239 -0.068088 0.000000
0.728000 0.052155 -0.063134 -0.073137 0.000000
0.730000 0.052155 -0.072564 0.038607 0.000000
0.732000 0.052155 0.032555 0.038607 0.000000
0.734000 0.053689 0.032824 0.128958 0.000000
0.736000 0.053689 0.126920 0.104120 0.000000
0.738000 0.053689 0.106600 -0.003841 0.000000
0.740000 0.053689 0.002115 -0.003841 0.000000
0.742000 0.053689 0.002352 -0.058622 0.000000
0.744000 0.055223 -0.056724 -0.011619 0.000000
0.746000 0.055223 -0.014061 0.080750 0.000000
0.748000 0.055223 0.075884 0.114770 0.000000
0.750000 0.055223 0.114977 0.114770 0.000000
0.752000 0.055223 0.115046 -0.061211 0.000000
0.754000 0.055223 -0.056025 -0.092124 0.000000
0.756000 0.055223 -0.090540 -0.082722 0.000000
0.758000 0.055223 -0.083396 0.031854 0.000000
0.760000 0.056757 0.025378 0.031854 0.000000
0.762000 0.056757 0.025670 0.137014 0.000000
0.764000 0.056757 0.134485 0.154803 0.000000
0.766000 0.056757 0.155441 0.033001 0.000000
0.768000 0.056757 0.040197 0.033001 0.000000
0.770000 0.056757 0.040355 -0.016902 0.000000
0.772000 0.056757 -0.015321 0.027847 0.000000
0.774000 0.058291 0.025467 0.041510 0.000000
0.776000 0.058291 0.040846 -0.046160 0.000000
0.778000 0.058291 -0.040712 -0.046160 0.000000
0.780000 0.058291 -0.040495 -0.033179 0.000000
0.782000 0.058291 -0.033199 -0.028421 0.000000
0.784000 0.058291 -0.028461 0.006894 0.000000
0.786000 0.058291 0.005135 0.006894 0.000000
0.788000 0.058291 0.005400 0.140751 0.000000
0.790000 0.059825 0.136945 0.063296 0.000000
0.792000 0.059825 0.067738 -0.041881 0.000000
0.794000 0.059825 -0.035706 -0.073407 0.000000
0.796000 0.059825 -0.071238 -0.073407 0.000000
0.798000 0.059825 -0.071018 -0.013360 0.000000
0.800000 0.059825 -0.015084 0.057530 0.000000
0.802000 0.059825 0.054089 0.102287 0.000000
0.804000 0.059825 0.100719 -0.041004 0.000000
0.806000 0.059825 -0.033474 -0.041004 0.000000
0.808000 0.059825 -0.033254 -0.076409 0.000000
0.810000 0.059825 -0.075184 -0.045439 0.000000
0.812000 0.059825 -0.047228 0.110287 0.000000
0.814000 0.059825 0.101980 0.110287 0.000000
0.816000 0.059825 0.101991 0.197858 0.000000
0.818000 0.059825 0.196041 0.112293 0.000000
0.820000 0.059825 0.117722 -0.016016 0.000000
0.822000 0.059825 -0.008861 -0.055490 0.000000
0.824000 0.059825 -0.053386 -0.055490 0.000000
0.826000 0.059825 -0.053145 -0.009726 0.000000
0.828000 0.059825 -0.011031 0.059144 0.000000
0.830000 0.061359 0.055485 0.085228 0.000000
0.832000 0.061359 0.084911 0.085228 0.000000
0.834000 0.061359 0.084859 0.032479 0.000000
0.836000 0.059825 0.034322 0.007219 0.000000
0.838000 0.059825 0.008633 0.004579 0.000000
0.840000 0.059825 0.004603 0.022029 0.000000
0.842000 0.059825 0.020801 0.022029 0.000000
0.844000 0.059825 0.020867 0.004971 0.000000
0.846000 0.059825 0.005557 -0.038314 0.000000
0.848000 0.059825 -0.035651 -0.077834 0.000000
0.850000 0.059825 -0.075418 -0.077834 0.000000
0.852000 0.059825 -0.075267 0.000677 0.000000
0.854000 0.059825 -0.001432 0.071681 0.000000
0.856000 0.059825 0.067853 0.143732 0.000000
0.858000 0.059825 0.140029 0.011611 0.000000
0.860000 0.059825 0.018791 0.011611 0.000000
0.862000 0.059825 0.018763 -0.054250 0.000000
0.864000 0.059825 -0.052206 -0.086118 0.000000
0.866000 0.059825 -0.084496 -0.063847 0.000000
0.868000 0.059825 -0.065082 0.072450 0.000000
0.870000 0.059825 0.065675 0.072450 0.000000
0.872000 0.059825 0.065736 0.085998 0.000000
0.874000 0.059825 0.085694 0.042456 0.000000
0.876000 0.059825 0.044983 -0.006512 0.000000
0.878000 0.059825 -0.003742 -0.006512 0.000000
0.880000 0.059825 -0.003735 -0.009849 0.000000
0.882000 0.059825 -0.009799 0.024764 0.000000
0.884000 0.059825 0.022949 0.065224 0.000000
0.886000 0.059825 0.063424 -0.020764 0.000000
0.888000 0.059825 -0.015903 -0.020764 0.000000
0.890000 0.059825 -0.015856 -0.036036 0.000000
0.892000 0.059825 -0.035529 -0.049987 0.000000
0.894000 0.059825 -0.049402 0.025244 0.000000
0.896000 0.059825 0.021061 0.025244 0.000000
0.898000 0.059825 0.021060 0.077046 0.000000
0.900000 0.059825 0.075572 0.079122 0.000000
0.902000 0.059825 0.079375 0.028741 0.000000
0.904000 0.058291 0.031919 -0.052851 0.000000
0.906000 0.058291 -0.048371 -0.052851 0.000000
0.908000 0.058291 -0.048292 -0.041215 0.000000
0.910000 0.058291 -0.041573 0.006115 0.000000
0.912000 0.058291 0.003467 0.083123 0.000000
0.914000 0.058291 0.078970 0.083123 0.000000
0.916000 0.058291 0.078814 0.044666 0.000000
0.918000 0.058291 0.045848 -0.008436 0.000000
0.920000 0.058291 -0.005354 -0.017498 0.000000
0.922000 0.056757 -0.016770 0.006078 0.000000
0.924000 0.056757 0.004899 0.006078 0.000000
0.926000 0.056757 0.004954 0.058835 0.000000
0.928000 0.056757 0.057403 0.107455 0.000000
0.930000 0.056757 0.105060 0.072122 0.000000
0.932000 0.056757 0.074133 -0.006169 0.000000
0.934000 0.056757 -0.001765 -0.006169 0.000000
0.936000 0.056757 -0.001883 -0.049733 0.000000
0.938000 0.056757 -0.048445 -0.043564 0.000000
0.940000 0.056757 -0.043964 0.026648 0.000000
0.942000 0.055223 0.022881 0.026648 0.000000
0.944000 0.055223 0.022906 0.063043 0.000000
0.946000 0.055223 0.062068 0.062985 0.000000
0.948000 0.055223 0.063260 0.042668 0.000000
0.950000 0.055223 0.043915 -0.020155 0.000000
0.952000 0.055223 -0.016965 -0.020155 0.000000
0.954000 0.055223 -0.017047 -0.009971 0.000000
0.956000 0.055223 -0.010225 -0.011563 0.000000
0.958000 0.055223 -0.011531 0.001568 0.000000
0.960000 0.055223 0.001021 0.001568 0.000000
0.962000 0.053689 0.001037 -0.004432 0.000000
0.964000 0.053689 -0.004126 0.002644 0.000000
0.966000 0.053689 0.002467 0.006962 0.000000
0.968000 0.053689 0.006419 0.052217 0.000000
0.970000 0.053689 0.049328 0.052217 0.000000
0.972000 0.053689 0.049191 0.066924 0.000000
0.974000 0.053689 0.066556 0.041533 0.000000
0.976000 0.053689 0.043057 -0.045570 0.000000
0.978000 0.053689 -0.040314 -0.045570 0.000000
0.980000 0.052155 -0.040327 -0.064488 0.000000
0.982000 0.052155 -0.063844 -0.035358 0.000000
0.984000 0.052155 -0.037226 0.008477 0.000000
0.986000 0.052155 0.005665 0.085238 0.000000
0.988000 0.052155 0.080720 0.085238 0.000000
0.990000 0.052155 0.080509 0.072550 0.000000
0.992000 0.052155 0.072865 0.030515 0.000000
0.994000 0.052155 0.033100 -0.081622 0.000000
0.996000 0.052155 -0.075069 -0.056760 0.000000
0.998000 0.050621 -0.058150 -0.056760 0.000000
1.000000 0.050621 -0.058094 -0.022125 0.000000
1.002000 0.050621 -0.023353 0.020282 0.000000
1.004000 0.050621 0.017760 0.044506 0.000000
1.006000 0.050621 0.043027 0.044506 0.000000
1.008000 0.050621 0.042835 0.023204 0.000000
1.010000 0.050621 0.023869 -0.018089 0.000000
1.012000 0.049087 -0.015685 -0.042922 0.000000
1.014000 0.049087 -0.041538 0.008033 0.000000
1.016000 0.049087 0.005046 0.008033 0.000000
1.018000 0.049087 0.005029 0.050475 0.000000
1.020000 0.049087 0.049152 0.085000 0.000000
1.022000 0.049087 0.083254 0.018210 0.000000
1.024000 0.047553 0.022040 0.018210 0.000000
1.026000 0.047553 0.021848 -0.032096 0.000000
1.028000 0.047553 -0.030614 -0.059091 0.000000
1.030000 0.047553 -0.057793 -0.031787 0.000000
1.032000 0.047553 -0.033352 0.064910 0.000000
1.034000 0.047553 0.059672 0.064910 0.000000
1.036000 0.047553 0.059548 0.108141 0.000000
1.038000 0.047553 0.107015 0.087462 0.000000
1.040000 0.047553 0.088896 -0.023357 0.000000
1.042000 0.046019 -0.017627 -0.023357 0.000000
1.044000 0.046019 -0.017752 -0.064681 0.000000
1.046000 0.046019 -0.063537 -0.058086 0.000000
1.048000 0.046019 -0.058674 -0.023411 0.000000
1.050000 0.046019 -0.025535 0.051876 0.000000
1.052000 0.046019 0.048144 0.051876 0.000000
1.054000 0.044485 0.048020 0.064805 0.000000
1.056000 0.044485 0.064596 0.034506 0.000000
1.058000 0.044485 0.036176 -0.040475 0.000000
1.060000 0.044485 -0.037028 -0.040475 0.000000
1.062000 0.044485 -0.037068 -0.038161 0.000000
1.064000 0.044485 -0.038265 -0.025751 0.000000
1.066000 0.044485 -0.026655 -0.003572 0.000000
1.068000 0.042951 -0.004966 0.046466 0.000000
1.070000 0.042951 0.044586 0.046466 0.000000
1.072000 0.042951 0.044447 0.029293 0.000000
1.074000 0.042951 0.029921 0.003432 0.000000
1.076000 0.042951 0.004429 -0.032901 0.000000
1.078000 0.042951 -0.031525 -0.022386 0.000000
1.080000 0.042951 -0.023061 -0.022386 0.000000
1.082000 0.042951 -0.023070 0.021477 0.000000
1.084000 0.042951 0.020045 0.072422 0.000000
1.086000 0.041417 0.069780 0.039950 0.000000
1.088000 0.041417 0.042656 0.039950 0.000000
1.090000 0.041417 0.042461 0.008268 0.000000
1.092000 0.041417 0.009235 -0.021339 0.000000
1.094000 0.041417 -0.020243 -0.052775 0.000000
1.096000 0.039884 -0.051475 -0.017296 0.000000
1.098000 0.039884 -0.019443 -0.017296 0.000000
1.100000 0.039884 -0.019468 0.038563 0.000000
1.102000 0.039884 0.036803 0.076334 0.000000
1.104000 0.039884 0.074826 0.036920 0.000000
1.106000 0.039884 0.039767 0.036920 0.000000
1.108000 0.039884 0.039607 0.018330 0.000000
1.110000 0.039884 0.018879 -0.038832 0.000000
1.112000 0.038350 -0.036224 -0.047141 0.000000
1.114000 0.038350 -0.046912 -0.031303 0.000000
1.116000 0.038350 -0.032465 -0.031303 0.000000
1.118000 0.038350 -0.032496 0.035750 0.000000
1.120000 0.038350 0.033852 0.069916 0.000000
1.122000 0.038350 0.068812 0.041259 0.000000
1.124000 0.038350 0.042921 0.041259 0.000000
1.126000 0.038350 0.042813 0.004679 0.000000
1.128000 0.036816 0.005688 0.009209 0.000000
1.130000 0.036816 0.008850 0.005082 0.000000
1.132000 0.036816 0.005202 0.000917 0.000000
1.134000 0.036816 0.001024 0.000917 0.000000
1.136000 0.036816 0.000912 0.035338 0.000000
1.138000 0.036816 0.034531 0.020630 0.000000
1.140000 0.036816 0.022253 0.021459 0.000000
1.142000 0.036816 0.020915 0.021459 0.000000
1.144000 0.036816 0.020854 -0.026792 0.000000
1.146000 0.036816 -0.025522 0.010376 0.000000
1.148000 0.035282 0.008347 0.012756 0.000000
1.150000 0.035282 0.012438 0.023071 0.000000
1.152000 0.035282 0.022488 0.023071 0.000000
1.154000 0.035282 0.022325 0.025343 0.000000
1.156000 0.035282 0.025540 -0.016785 0.000000
1.158000 0.035282 -0.013728 -0.041713 0.000000
1.160000 0.035282 -0.041508 -0.038825 0.000000
1.162000 0.035282 -0.039278 -0.038825 0.000000
1.164000 0.035282 -0.039194 -0.005814 0.000000
1.166000 0.033748 -0.006803 -0.008002 0.000000
1.168000 0.033748 -0.008109 0.043244 0.000000
1.170000 0.033748 0.040976 0.043244 0.000000
1.172000 0.033748 0.040811 0.009793 0.000000
1.174000 0.033748 0.010997 -0.003162 0.000000
1.176000 0.033748 -0.002495 -0.052832 0.000000
1.178000 0.033748 -0.051109 -0.028510 0.000000
1.180000 0.033748 -0.029960 -0.028510 0.000000
1.182000 0.033748 -0.029892 -0.015945 0.000000
1.184000 0.033748 -0.016442 0.004498 0.000000
1.186000 0.033748 0.003260 0.040880 0.000000
1.188000 0.033748 0.039716 0.040880 0.000000
1.190000 0.033748 0.039559 -0.013593 0.000000
1.192000 0.033748 -0.011906 0.004929 0.000000
1.194000 0.032214 0.003540 -0.021284 0.000000
1.196000 0.032214 -0.020625 -0.014724 0.000000
1.198000 0.032214 -0.015130 -0.014724 0.000000
1.200000 0.032214 -0.015102 -0.015198 0.000000
1.202000 0.032214 -0.015366 0.014852 0.000000
1.204000 0.032214 0.013224 -0.017415 0.000000
1.206000 0.032214 -0.014970 -0.017415 0.000000
1.208000 0.032214 -0.015056 -0.020376 0.000000
1.210000 0.030680 -0.020270 -0.010579 0.000000
1.212000 0.030680 -0.011440 -0.021378 0.000000
1.214000 0.030680 -0.021148 -0.004251 0.000000
1.216000 0.030680 -0.005305 -0.004251 0.000000
1.218000 0.030680 -0.005273 0.026043 0.000000
1.220000 0.030680 0.025103 0.047358 0.000000
1.222000 0.030680 0.046407 -0.001937 0.000000
1.224000 0.030680 0.001200 -0.009334 0.000000
1.226000 0.030680 -0.009028 -0.009334 0.000000
1.228000 0.030680 -0.009053 -0.023830 0.000000
1.230000 0.030680 -0.023479 -0.024782 0.000000
1.232000 0.029146 -0.024814 0.005188 0.000000
1.234000 0.029146 0.003567 0.005188 0.000000
1.236000 0.029146 0.003606 0.048930 0.000000
1.238000 0.029146 0.047710 0.056398 0.000000
1.240000 0.029146 0.056367 0.031779 0.000000
1.242000 0.030680 0.033252 0.003475 0.000000
1.244000 0.029146 0.004879 0.003475 0.000000
1.246000 0.029146 0.004834 -0.024770 0.000000
1.248000 0.029146 -0.023948 -0.031845 0.000000
1.250000 0.029146 -0.031435 -0.009918 0.000000
1.252000 0.029146 -0.011080 -0.009918 0.000000
1.254000 0.029146 -0.011028 0.017689 0.000000
1.256000 0.029146 0.016959 0.028493 0.000000
1.258000 0.029146 0.028180 0.022767 0.000000
1.260000 0.029146 0.022806 0.002038 0.000000
1.262000 0.029146 0.003068 0.002038 0.000000
1.264000 0.029146 0.003058 -0.017103 0.000000
1.266000 0.029146 -0.016462 -0.024539 0.000000
1.268000 0.029146 -0.024094 -0.009603 0.000000
1.270000 0.029146 -0.010325 -0.009603 0.000000
1.272000 0.029146 -0.010282 -0.022172 0.000000
1.274000 0.029146 -0.021746 0.006429 0.000000
1.276000 0.029146 0.005091 -0.001223 0.000000
1.278000 0.029146 -0.001449 -0.007228 0.000000
1.280000 0.029146 -0.006910 -0.007228 0.000000
1.282000 0.027612 -0.006867 -0.000413 0.000000
1.284000 0.027612 -0.000518 -0.002619 0.000000
1.286000 0.027612 -0.002399 0.018958 0.000000
1.288000 0.027612 0.018232 -0.015436 0.000000
1.290000 0.027612 -0.013519 -0.015436 0.000000
1.292000 0.027612 -0.013530 0.007142 0.000000
1.294000 0.027612 0.006517 -0.014120 0.000000
1.296000 0.027612 -0.013511 -0.022082 0.000000
1.298000 0.027612 -0.021554 -0.022082 0.000000
1.300000 0.027612 -0.021489 -0.017281 0.000000
1.302000 0.027612 -0.017392 -0.012138 0.000000
1.304000 0.027612 -0.012275 0.015350 0.000000
1.306000 0.027612 0.014363 -0.001315 0.000000
1.308000 0.027612 -0.000520 -0.001315 0.000000
1.310000 0.027612 -0.000531 0.003812 0.000000
1.312000 0.027612 0.003579 0.004356 0.000000
1.314000 0.027612 0.004048 -0.023392 0.000000
1.316000 0.027612 -0.021735 -0.023392 0.000000
1.318000 0.027612 -0.021678 -0.030522 0.000000
1.320000 0.027612 -0.030260 -0.026345 0.000000
1.322000 0.027612 -0.026393 0.007593 0.000000
1.324000 0.027612 0.006123 0.005865 0.000000
1.326000 0.027612 0.005734 0.005865 0.000000
1.328000 0.027612 0.005759 0.016394 0.000000
1.330000 0.027612 0.016006 0.029735 0.000000
1.332000 0.027612 0.028939 -0.002992 0.000000
1.334000 0.027612 -0.000949 -0.002992 0.000000
1.336000 0.027612 -0.000922 -0.011883 0.000000
1.338000 0.027612 -0.011459 -0.014929 0.000000
1.340000 0.027612 -0.014538 -0.003196 0.000000
1.342000 0.027612 -0.003735 -0.002794 0.000000
1.344000 0.027612 -0.003046 -0.002794 0.000000
1.346000 0.027612 -0.003004 0.004296 0.000000
1.348000 0.027612 0.004034 0.021163 0.000000
1.350000 0.027612 0.020252 0.008124 0.000000
1.352000 0.027612 0.009178 -0.002689 0.000000
1.354000 0.027612 -0.001760 -0.002689 0.000000
1.356000 0.027612 -0.001662 -0.008673 0.000000
1.358000 0.027612 -0.008341 -0.017283 0.000000
1.360000 0.027612 -0.016943 -0.029694 0.000000
1.362000 0.027612 -0.029283 -0.029694 0.000000
1.364000 0.027612 -0.029209 -0.030495 0.000000
1.366000 0.027612 -0.030566 -0.004184 0.000000
1.368000 0.027612 -0.005604 0.004761 0.000000
1.370000 0.027612 0.004682 -0.006049 0.000000
1.372000 0.027612 -0.005168 -0.006049 0.000000
1.374000 0.027612 -0.005024 -0.003976 0.000000
1.376000 0.027612 -0.003876 0.000408 0.000000
1.378000 0.027612 -0.000032 -0.021565 0.000000
1.380000 0.027612 -0.020589 -0.021565 0.000000
1.382000 0.027612 -0.020526 -0.024791 0.000000
1.384000 0.027612 -0.024751 -0.008274 0.000000
1.386000 0.027612 -0.009075 -0.001463 0.000000
1.388000 0.027612 -0.001432 -0.008618 0.000000
1.390000 0.027612 -0.008026 -0.008618 0.000000
1.392000 0.027612 -0.007863 0.001915 0.000000
1.394000 0.027612 0.001758 0.018034 0.000000
1.396000 0.027612 0.017260 0.007083 0.000000
1.398000 0.027612 0.007417 0.007083 0.000000
1.400000 0.027612 0.007426 -0.010483 0.000000
1.402000 0.027612 -0.010006 -0.002384 0.000000
1.404000 0.027612 -0.002659 -0.010685 0.000000
1.406000 0.027612 -0.009896 -0.024876 0.000000
1.408000 0.027612 -0.024008 -0.024876 0.000000
1.410000 0.027612 -0.023831 -0.015911 0.000000
1.412000 0.027612 -0.016047 0.007301 0.000000
1.414000 0.027612 0.006179 -0.002022 0.000000
1.416000 0.027612 -0.001713 -0.010320 0.000000
1.418000 0.027612 -0.009959 -0.010320 0.000000
1.420000 0.027612 -0.009966 0.007105 0.000000
1.422000 0.027612 0.006674 0.000436 0.000000
1.424000 0.027612 0.001105 -0.020537 0.000000
1.426000 0.027612 -0.019279 -0.020537 0.000000
1.428000 0.027612 -0.019101 -0.010290 0.000000
1.430000 0.027612 -0.010428 0.018469 0.000000
1.432000 0.027612 0.017132 -0.011006 0.000000
1.434000 0.027612 -0.009528 -0.029882 0.000000
1.436000 0.027612 -0.028908 -0.029882 0.000000
1.438000 0.029146 -0.028858 0.008201 0.000000
1.440000 0.029146 0.007185 0.020218 0.000000
1.442000 0.029146 0.019838 0.005450 0.000000
1.444000 0.029146 0.006435 0.005450 0.000000
1.446000 0.029146 0.006578 0.013458 0.000000
1.448000 0.029146 0.013428 0.037585 0.000000
1.450000 0.029146 0.036596 -0.026345 0.000000
1.452000 0.029146 -0.023070 -0.067614 0.000000
1.454000 0.029146 -0.065493 -0.067614 0.000000
1.456000 0.029146 -0.065404 -0.030639 0.000000
1.458000 0.029146 -0.031713 0.005822 0.000000
1.460000 0.029146 0.004076 0.007284 0.000000
1.462000 0.029146 0.007397 0.007284 0.000000
1.464000 0.029146 0.007552 0.020195 0.000000
1.466000 0.029146 0.020064 0.036769 0.000000
1.468000 0.029146 0.036205 -0.035492 0.000000
1.470000 0.029146 -0.031912 -0.091136 0.000000
1.472000 0.029146 -0.088304 -0.091136 0.000000
1.474000 0.029146 -0.088175 -0.054543 0.000000
1.476000 0.030680 -0.055650 -0.011720 0.000000
1.478000 0.030680 -0.014023 0.006231 0.000000
1.480000 0.029146 0.005623 0.038601 0.000000
1.482000 0.029146 0.037228 0.038601 0.000000
1.484000 0.029146 0.037391 0.058968 0.000000
1.486000 0.029146 0.058699 -0.026473 0.000000
1.488000 0.029146 -0.022261 -0.084113 0.000000
1.490000 0.029146 -0.081109 -0.084113 0.000000
1.492000 0.030680 -0.080979 -0.045245 0.000000
1.494000 0.030680 -0.046378 0.000939 0.000000
1.496000 0.030680 -0.001458 0.016358 0.000000
1.498000 0.030680 0.015932 0.041099 0.000000
1.500000 0.030680 0.040122 0.041099 0.000000
1.502000 0.030680 0.040259 0.059394 0.000000
1.504000 0.030680 0.059160 -0.058190 0.000000
1.506000 0.030680 -0.052296 -0.091766 0.000000
1.508000 0.030680 -0.090016 -0.091766 0.000000
1.510000 0.030680 -0.089858 -0.044857 0.000000
1.512000 0.030680 -0.046282 0.008975 0.000000
1.514000 0.030680 0.006180 0.053600 0.000000
1.516000 0.030680 0.051813 0.050690 0.000000
1.518000 0.030680 0.051143 0.050690 0.000000
1.520000 0.030680 0.051250 0.047191 0.000000
1.522000 0.030680 0.047587 -0.084609 0.000000
1.524000 0.030680 -0.078020 -0.111011 0.000000
1.526000 0.030680 -0.109600 -0.111011 0.000000
1.528000 0.030680 -0.109393 -0.053893 0.000000
1.530000 0.032214 -0.055658 0.019385 0.000000
1.532000 0.032214 0.015582 0.089061 0.000000
1.534000 0.032214 0.086121 0.091303 0.000000
1.536000 0.032214 0.091450 0.091303 0.000000
1.538000 0.032214 0.091498 0.062696 0.000000
1.540000 0.030680 0.063804 -0.088335 0.000000
1.542000 0.030680 -0.080556 -0.114983 0.000000
1.544000 0.032214 -0.113500 -0.114983 0.000000
1.546000 0.032214 -0.113292 -0.054166 0.000000
1.548000 0.032214 -0.056047 0.029388 0.000000
1.550000 0.032214 0.025122 0.092638 0.000000
1.552000 0.032214 0.090064 0.086038 0.000000
1.554000 0.032214 0.086635 0.086038 0.000000
1.556000 0.032214 0.086690 0.044828 0.000000
1.558000 0.032214 0.046209 -0.107778 0.000000
1.560000 0.032214 -0.099852 -0.110645 0.000000
1.562000 0.032214 -0.110496 -0.051200 0.000000
1.564000 0.032214 -0.054586 -0.051200 0.000000
1.566000 0.033748 -0.054478 0.032225 0.000000
1.568000 0.033748 0.029861 0.104225 0.000000
1.570000 0.033748 0.101519 0.083934 0.000000
1.572000 0.033748 0.085408 0.083934 0.000000
1.574000 0.032214 0.085464 0.010933 0.000000
1.576000 0.032214 0.013094 -0.057543 0.000000
1.578000 0.032214 -0.053812 -0.084201 0.000000
1.580000 0.032214 -0.082998 -0.043232 0.000000
1.582000 0.033748 -0.045556 -0.043232 0.000000
1.584000 0.033748 -0.045455 0.081932 0.000000
1.586000 0.033748 0.078468 0.105776 0.000000
1.588000 0.033748 0.105981 0.063508 0.000000
1.590000 0.033748 0.066273 0.063508 0.000000
1.592000 0.033748 0.066334 -0.012694 0.000000
1.594000 0.033748 -0.010569 -0.078824 0.000000
1.596000 0.033748 -0.075276 -0.053482 0.000000
1.598000 0.033748 -0.055117 -0.006333 0.000000
1.600000 0.033748 -0.009100 -0.006333 0.000000
1.602000 0.035282 -0.009064 0.120405 0.000000
1.604000 0.035282 0.117022 0.112600 0.000000
1.606000 0.035282 0.114723 0.018848 0.000000
1.608000 0.033748 0.024007 0.018848 0.000000
1.610000 0.033748 0.024102 -0.062828 0.000000
1.612000 0.033748 -0.060434 -0.105843 0.000000
1.614000 0.033748 -0.103896 -0.039364 0.000000
1.616000 0.033748 -0.043311 0.005452 0.000000
1.618000 0.033748 0.002749 0.005452 0.000000
1.620000 0.035282 0.002763 0.137288 0.000000
1.622000 0.035282 0.133827 0.088487 0.000000
1.624000 0.035282 0.092775 -0.012996 0.000000
1.626000 0.035282 -0.007398 -0.087058 0.000000
1.628000 0.033748 -0.083460 -0.087058 0.000000
1.630000 0.033748 -0.083174 -0.088822 0.000000
1.632000 0.035282 -0.088764 -0.013627 0.000000
1.634000 0.035282 -0.018032 0.025748 0.000000
1.636000 0.035282 0.023502 0.025748 0.000000
1.638000 0.035282 0.023464 0.122466 0.000000
1.640000 0.036816 0.120116 0.069710 0.000000
1.642000 0.035282 0.074020 -0.029953 0.000000
1.644000 0.035282 -0.024946 -0.067806 0.000000
1.646000 0.035282 -0.066035 -0.067806 0.000000
1.648000 0.035282 -0.065763 -0.069073 0.000000
1.650000 0.035282 -0.068949 -0.012031 0.000000
1.652000 0.035282 -0.015511 0.023296 0.000000
1.654000 0.035282 0.021450 0.023296 0.000000
1.656000 0.036816 0.021365 0.082523 0.000000
1.658000 0.036816 0.081313 0.018727 0.000000
1.660000 0.036816 0.022771 -0.027604 0.000000
1.662000 0.035282 -0.025366 -0.046093 0.000000
1.664000 0.035282 -0.045423 -0.046093 0.000000
1.666000 0.035282 -0.045167 -0.033881 0.000000
1.668000 0.035282 -0.034128 -0.025661 0.000000
1.670000 0.035282 -0.026145 0.018000 0.000000
1.672000 0.036816 0.015849 0.018000 0.000000
1.674000 0.036816 0.015760 0.034255 0.000000
1.676000 0.036816 0.034128 0.061413 0.000000
1.678000 0.035282 0.060548 -0.005115 0.000000
1.680000 0.035282 -0.002467 -0.030344 0.000000
1.682000 0.035282 -0.028981 -0.030344 0.000000
1.684000 0.035282 -0.028775 -0.020096 0.000000
1.686000 0.035282 -0.020327 -0.004222 0.000000
1.688000 0.035282 -0.004681 0.010679 0.000000
1.690000 0.036816 0.010150 0.045810 0.000000
1.692000 0.036816 0.044430 0.045810 0.000000
1.694000 0.036816 0.044375 0.067195 0.000000
1.696000 0.035282 0.066813 0.033783 0.000000
1.698000 0.035282 0.034911 -0.008539 0.000000
1.700000 0.035282 -0.006142 -0.008539 0.000000
1.702000 0.035282 -0.006025 -0.052122 0.000000
1.704000 0.035282 -0.050748 -0.033986 0.000000
1.706000 0.036816 -0.034585 0.017624 0.000000
1.708000 0.036816 0.015041 0.072400 0.000000
1.710000 0.036816 0.069591 0.072400 0.000000
1.712000 0.036816 0.069527 0.104287 0.000000
1.714000 0.036816 0.103571 0.029609 0.000000
1.716000 0.035282 0.033254 -0.052631 0.000000
1.718000 0.035282 -0.047938 -0.052631 0.000000
1.720000 0.035282 -0.047811 -0.080291 0.000000
1.722000 0.035282 -0.079426 -0.030754 0.000000
1.724000 0.036816 -0.033207 0.051589 0.000000
1.726000 0.036816 0.047258 0.105056 0.000000
1.728000 0.036816 0.102387 0.105056 0.000000
1.730000 0.036816 0.102287 0.118941 0.000000
1.732000 0.035282 0.118826 -0.019287 0.000000
1.734000 0.035282 -0.012132 -0.087109 0.000000
1.736000 0.035282 -0.083173 -0.087109 0.000000
1.738000 0.035282 -0.082997 -0.086436 0.000000
1.740000 0.035282 -0.086534 -0.042184 0.000000
1.742000 0.036816 -0.044686 0.104668 0.000000
1.744000 0.036816 0.097311 0.132425 0.000000
1.746000 0.036816 0.131105 0.132425 0.000000
1.748000 0.036816 0.130942 0.069367 0.000000
1.750000 0.035282 0.071385 -0.072156 0.000000
1.752000 0.035282 -0.064874 -0.079500 0.000000
1.754000 0.035282 -0.078920 -0.053630 0.000000
1.756000 0.035282 -0.055172 -0.053630 0.000000
1.758000 0.035282 -0.055062 0.018288 0.000000
1.760000 0.035282 0.016138 0.112038 0.000000
1.762000 0.035282 0.107953 0.093903 0.000000
1.764000 0.035282 0.095237 0.093903 0.000000
1.766000 0.035282 0.095103 -0.000475 0.000000
1.768000 0.035282 0.002302 -0.100610 0.000000
1.770000 0.035282 -0.095821 -0.058368 0.000000
1.772000 0.035282 -0.060614 -0.004544 0.000000
1.774000 0.035282 -0.007767 -0.004544 0.000000
1.776000 0.035282 -0.007728 0.062877 0.000000
1.778000 0.035282 0.060933 0.090713 0.000000
1.780000 0.035282 0.090559 0.031826 0.000000
1.782000 0.035282 0.035389 0.031826 0.000000
1.784000 0.035282 0.035323 -0.048689 0.000000
1.786000 0.035282 -0.046612 -0.072714 0.000000
1.788000 0.035282 -0.071856 -0.013869 0.000000
1.790000 0.033748 -0.017224 0.043451 0.000000
1.792000 0.033748 0.040353 0.043451 0.000000
1.794000 0.035282 0.040269 0.098015 0.000000
1.796000 0.035282 0.096568 0.064782 0.000000
1.798000 0.035282 0.067814 -0.011884 0.000000
1.800000 0.035282 -0.007409 -0.011884 0.000000
1.802000 0.033748 -0.007396 -0.056803 0.000000
1.804000 0.033748 -0.055783 -0.034560 0.000000
1.806000 0.033748 -0.036153 0.025670 0.000000
1.808000 0.033748 0.022440 0.027197 0.000000
1.810000 0.033748 0.027297 0.027197 0.000000
1.812000 0.035282 0.027178 0.074773 0.000000
1.814000 0.035282 0.073665 0.036854 0.000000
1.816000 0.035282 0.039197 -0.011669 0.000000
1.818000 0.033748 -0.009276 -0.028258 0.000000
1.820000 0.033748 -0.027607 -0.028258 0.000000
1.822000 0.033748 -0.027501 -0.001194 0.000000
1.824000 0.033748 -0.002029 0.009464 0.000000
1.826000 0.033748 0.009277 0.033541 0.000000
1.828000 0.033748 0.032537 0.033541 0.000000
1.830000 0.033748 0.032376 0.018580 0.000000
1.832000 0.033748 0.019075 0.045588 0.000000
1.834000 0.033748 0.043787 0.017831 0.000000
1.836000 0.033748 0.019147 -0.007250 0.000000
1.838000 0.032214 -0.005931 -0.007250 0.000000
1.840000 0.032214 -0.005877 -0.026578 0.000000
1.842000 0.032214 -0.025963 -0.018460 0.000000
1.844000 0.033748 -0.018277 -0.003256 0.000000
1.846000 0.033748 -0.004123 -0.003256 0.000000
1.848000 0.033748 -0.004214 0.032277 0.000000
1.850000 0.033748 0.031177 0.075225 0.000000
1.852000 0.032214 0.072491 0.033765 0.000000
1.854000 0.032214 0.035925 -0.013451 0.000000
1.856000 0.032214 -0.010697 -0.013451 0.000000
1.858000 0.032214 -0.010693 -0.060784 0.000000
1.860000 0.032214 -0.059349 -0.014808 0.000000
1.862000 0.032214 -0.016930 0.024017 0.000000
1.864000 0.032214 0.021836 0.024017 0.000000
1.866000 0.032214 0.021727 0.075162 0.000000
1.868000 0.032214 0.073688 0.063097 0.000000
1.870000 0.032214 0.063492 -0.015926 0.000000
1.872000 0.030680 -0.011576 -0.053078 0.000000
1.874000 0.030680 -0.050904 -0.053078 0.000000
1.876000 0.030680 -0.050862 -0.075207 0.000000
1.878000 0.030680 -0.074645 0.024145 0.000000
1.880000 0.030680 0.019002 0.064644 0.000000
1.882000 0.030680 0.062277 0.075980 0.000000
1.884000 0.030680 0.075302 0.075980 0.000000
1.886000 0.030680 0.075093 0.002207 0.000000
1.888000 0.030680 0.004237 -0.026933 0.000000
1.890000 0.030680 -0.025297 -0.039150 0.000000
1.892000 0.030680 -0.038400 -0.039150 0.000000
1.894000 0.029146 -0.038357 0.002302 0.000000
1.896000 0.029146 0.001154 0.071731 0.000000
1.898000 0.029146 0.068303 0.069141 0.000000
1.900000 0.029146 0.069215 0.037411 0.000000
1.902000 0.029146 0.039270 0.037411 0.000000
1.904000 0.029146 0.039097 -0.036250 0.000000
1.906000 0.029146 -0.034242 -0.039413 0.000000
1.908000 0.029146 -0.039377 -0.002128 0.000000
1.910000 0.029146 -0.004147 -0.002128 0.000000
1.912000 0.029146 -0.004149 0.040392 0.000000
1.914000 0.029146 0.039217 0.066736 0.000000
1.916000 0.029146 0.065864 0.011307 0.000000
1.918000 0.029146 0.014130 -0.051237 0.000000
1.920000 0.029146 -0.048298 -0.051237 0.000000
1.922000 0.029146 -0.048361 -0.059394 0.000000
1.924000 0.027612 -0.059335 0.012816 0.000000
1.926000 0.027612 0.008870 0.065886 0.000000
1.928000 0.027612 0.063160 0.065886 0.000000
1.930000 0.027612 0.063066 0.091987 0.000000
1.932000 0.027612 0.091425 -0.004814 0.000000
1.934000 0.027612 0.000854 -0.064470 0.000000
1.936000 0.027612 -0.061202 -0.079217 0.000000
1.938000 0.027612 -0.079176 -0.079217 0.000000
1.940000 0.027612 -0.079136 -0.026262 0.000000
1.942000 0.027612 -0.027984 0.072643 0.000000
1.944000 0.026078 0.067336 0.074858 0.000000
1.946000 0.026078 0.074967 0.056223 0.000000
1.948000 0.026078 0.057786 0.056223 0.000000
1.950000 0.026078 0.057589 -0.076403 0.000000
1.952000 0.026078 -0.072773 -0.080202 0.000000
1.954000 0.026078 -0.080440 -0.026640 0.000000
1.956000 0.026078 -0.029904 -0.026640 0.000000
1.958000 0.026078 -0.029884 0.035903 0.000000
1.960000 0.026078 0.033960 0.084583 0.000000
1.962000 0.024544 0.082391 0.049230 0.000000
1.964000 0.024544 0.051642 -0.041712 0.000000
1.966000 0.024544 -0.036709 -0.041712 0.000000
1.968000 0.024544 -0.036830 -0.085328 0.000000
1.970000 0.024544 -0.084438 -0.017693 0.000000
1.972000 0.024544 -0.021587 0.035535 0.000000
1.974000 0.024544 0.032380 0.035535 0.000000
1.976000 0.024544 0.032322 0.090415 0.000000
1.978000 0.024544 0.088988 0.028744 0.000000
1.980000 0.024544 0.032921 -0.046342 0.000000
1.982000 0.024544 -0.042316 -0.090591 0.000000
1.984000 0.024544 -0.088992 -0.090591 0.000000
1.986000 0.023010 -0.088996 0.009629 0.000000
1.988000 0.023010 0.006588 0.060454 0.000000
1.990000 0.023010 0.057624 0.086412 0.000000
1.992000 0.023010 0.085284 0.086412 0.000000
1.994000 0.023010 0.085111 0.076615 0.000000
1.996000 0.023010 0.077167 -0.057950 0.000000
1.998000 0.023010 -0.050314 -0.081294 0.000000
2.000000 0.023010 -0.080184 -0.035409 0.000000
2.002000 0.023010 -0.038540 -0.035409 0.000000
2.004000 0.023010 -0.038555 0.053629 0.000000
2.006000 0.023010 0.050896 0.103929 0.000000
2.008000 0.023010 0.101665 0.042887 0.000000
2.010000 0.021476 0.046601 -0.034963 0.000000
2.012000 0.021476 -0.030578 -0.034963 0.000000
2.014000 0.021476 -0.030648 -0.099709 0.000000
2.016000 0.021476 -0.098169 -0.044700 0.000000
2.018000 0.021476 -0.048023 0.048500 0.000000
2.020000 0.021476 0.043247 0.048500 0.000000
2.022000 0.021476 0.043134 0.117472 0.000000
2.024000 0.021476 0.115576 0.060250 0.000000
2.026000 0.021476 0.063942 -0.040327 0.000000
2.028000 0.019942 -0.034897 -0.099113 0.000000
2.030000 0.019942 -0.096299 -0.099113 0.000000
2.032000 0.019942 -0.096252 -0.024764 0.000000
2.034000 0.019942 -0.027101 0.047185 0.000000
2.036000 0.019942 0.043401 0.099270 0.000000
2.038000 0.019942 0.096823 0.099270 0.000000
2.040000 0.019942 0.096605 0.097852 0.000000
2.042000 0.019942 0.098163 -0.052098 0.000000
2.044000 0.019942 -0.044277 -0.100610 0.000000
2.046000 0.019942 -0.098216 -0.065919 0.000000
2.048000 0.019942 -0.068137 -0.065919 0.000000
2.050000 0.018408 -0.068050 0.063162 0.000000
2.052000 0.018408 0.059351 0.080881 0.000000
2.054000 0.018408 0.080235 0.057668 0.000000
2.056000 0.018408 0.059283 0.057668 0.000000
2.058000 0.018408 0.059036 -0.013881 0.000000
2.060000 0.018408 -0.011800 -0.061416 0.000000
2.062000 0.018408 -0.059546 -0.022565 0.000000
2.064000 0.018408 -0.024829 0.034083 0.000000
2.066000 0.018408 0.030929 0.034083 0.000000
2.068000 0.016874 0.030895 0.064323 0.000000
2.070000 0.018408 0.063605 0.000271 0.000000
2.072000 0.018408 0.004116 -0.054405 0.000000
2.074000 0.018408 -0.051557 -0.101432 0.000000
2.076000 0.018408 -0.099275 -0.101432 0.000000
2.078000 0.016874 -0.099263 -0.003628 0.000000
2.080000 0.016874 -0.006770 0.032274 0.000000
2.082000 0.016874 0.030073 0.080937 0.000000
2.084000 0.016874 0.078590 0.080937 0.000000
2.086000 0.016874 0.078451 0.041819 0.000000
2.088000 0.016874 0.043117 -0.059454 0.000000
2.090000 0.016874 -0.053638 -0.069446 0.000000
2.092000 0.016874 -0.069051 -0.029989 0.000000
2.094000 0.015340 -0.032860 -0.029989 0.000000
2.096000 0.015340 -0.032859 0.073959 0.000000
2.098000 0.015340 0.070876 0.069367 0.000000
2.100000 0.015340 0.069824 -0.015996 0.000000
2.102000 0.015340 -0.011070 -0.015996 0.000000
2.104000 0.015340 -0.011164 -0.071648 0.000000
2.106000 0.015340 -0.069961 -0.060987 0.000000
2.108000 0.015340 -0.062064 -0.002399 0.000000
2.110000 0.015340 -0.006052 0.069809 0.000000
2.112000 0.015340 0.065764 0.069809 0.000000
2.114000 0.015340 0.065666 0.071669 0.000000
2.116000 0.015340 0.071744 -0.027032 0.000000
2.118000 0.015340 -0.021556 -0.101493 0.000000
2.120000 0.015340 -0.097495 -0.101493 0.000000
2.122000 0.015340 -0.097498 -0.109156 0.000000
2.124000 0.013806 -0.109268 0.027879 0.000000
2.126000 0.013806 0.020063 0.082633 0.000000
2.128000 0.013806 0.079435 0.085065 0.000000
2.130000 0.013806 0.085162 0.085065 0.000000
2.132000 0.013806 0.084978 -0.043744 0.000000
2.134000 0.013806 -0.039846 -0.094168 0.000000
2.136000 0.013806 -0.091668 -0.070366 0.000000
2.138000 0.013806 -0.072072 -0.011354 0.000000
2.140000 0.013806 -0.014993 -0.011354 0.000000
2.142000 0.013806 -0.014985 0.070915 0.000000
2.144000 0.013806 0.068458 0.030780 0.000000
2.146000 0.013806 0.033208 -0.038278 0.000000
2.148000 0.013806 -0.034276 -0.038278 0.000000
2.150000 0.013806 -0.034345 -0.064530 0.000000
2.152000 0.013806 -0.063887 -0.012434 0.000000
2.154000 0.012272 -0.015531 0.043152 0.000000
2.156000 0.012272 0.039887 0.070221 0.000000
2.158000 0.012272 0.068707 0.070221 0.000000
2.160000 0.012272 0.068562 0.009475 0.000000
2.162000 0.012272 0.011396 -0.059839 0.000000
2.164000 0.012272 -0.055984 -0.079611 0.000000
2.166000 0.012272 -0.078787 -0.079611 0.000000
2.168000 0.012272 -0.078751 -0.050194 0.000000
2.170000 0.012272 -0.051307 0.035958 0.000000
2.172000 0.012272 0.030852 0.071604 0.000000
2.174000 0.012272 0.069683 0.034614 0.000000
2.176000 0.012272 0.037011 0.034614 0.000000
2.178000 0.012272 0.036858 -0.040658 0.000000
2.180000 0.012272 -0.038333 -0.046304 0.000000
2.182000 0.012272 -0.046293 -0.014679 0.000000
2.184000 0.012272 -0.016764 -0.014679 0.000000
2.186000 0.012272 -0.016737 0.019896 0.000000
2.188000 0.012272 0.018777 0.024598 0.000000
2.190000 0.012272 0.024329 -0.018036 0.000000
2.192000 0.012272 -0.015426 -0.034656 0.000000
2.194000 0.012272 -0.033471 -0.034656 0.000000
2.196000 0.010738 -0.033515 0.010806 0.000000
2.198000 0.010738 0.009380 0.031715 0.000000
2.200000 0.010738 0.030291 0.039867 0.000000
2.202000 0.010738 0.039262 0.034413 0.000000
2.204000 0.010738 0.034842 0.034413 0.000000
2.206000 0.010738 0.034761 -0.039391 0.000000
2.208000 0.010738 -0.036966 -0.040729 0.000000
2.210000 0.010738 -0.040593 -0.032806 0.000000
2.212000 0.010738 -0.033552 -0.032806 0.000000
2.214000 0.010738 -0.033537 0.007764 0.000000
2.216000 0.010738 0.006343 0.024086 0.000000
2.218000 0.010738 0.022996 -0.001437 0.000000
2.220000 0.010738 -0.000037 -0.000895 0.000000
2.222000 0.010738 -0.000424 -0.000895 0.000000
2.224000 0.010738 -0.000471 0.004252 0.000000
2.226000 0.010738 0.004254 -0.003485 0.000000
2.228000 0.010738 -0.003371 0.003230 0.000000
2.230000 0.010738 0.002467 0.003230 0.000000
2.232000 0.010738 0.002434 -0.016793 0.000000
2.234000 0.010738 -0.016384 -0.025337 0.000000
2.236000 0.010738 -0.024572 -0.020605 0.000000
2.238000 0.010738 -0.020474 -0.015897 0.000000
2.240000 0.010738 -0.016104 -0.015897 0.000000
2.242000 0.010738 -0.016087 -0.003402 0.000000
2.244000 0.010738 -0.003943 -0.003805 0.000000
2.246000 0.010738 -0.004133 -0.004455 0.000000
2.248000 0.010738 -0.004653 -0.004455 0.000000
2.250000 0.010738 -0.004676 0.010533 0.000000
2.252000 0.010738 0.010160 -0.007658 0.000000
2.254000 0.010738 -0.006101 -0.013366 0.000000
2.256000 0.010738 -0.013056 -0.022101 0.000000
2.258000 0.009204 -0.021902 -0.022101 0.000000
2.260000 0.009204 -0.021879 -0.022391 0.000000
2.262000 0.009204 -0.022634 0.027782 0.000000
2.264000 0.009204 0.025273 0.049636 0.000000
2.266000 0.009204 0.048759 0.046804 0.000000
2.268000 0.009204 0.047291 0.046804 0.000000
2.270000 0.009204 0.047216 -0.018709 0.000000
2.272000 0.009204 -0.016883 -0.047794 0.000000
2.274000 0.009204 -0.046437 -0.057601 0.000000
2.276000 0.009204 -0.057345 -0.057601 0.000000
2.278000 0.009204 -0.057285 0.025774 0.000000
2.280000 0.009204 0.023561 0.042035 0.000000
2.282000 0.009204 0.041342 0.040264 0.000000
2.284000 0.009204 0.040452 -0.006149 0.000000
2.286000 0.009204 -0.003769 -0.006149 0.000000
2.288000 0.009204 -0.003773 -0.039562 0.000000
2.290000 0.009204 -0.038752 -0.010911 0.000000
2.292000 0.009204 -0.012389 0.027960 0.000000
2.294000 0.009204 0.026164 0.027960 0.000000
2.296000 0.009204 0.026144 0.032639 0.000000
2.298000 0.009204 0.032606 0.000565 0.000000
2.300000 0.009204 0.002155 -0.042403 0.000000
2.302000 0.009204 -0.040321 -0.058769 0.000000
2.304000 0.009204 -0.058089 -0.058769 0.000000
2.306000 0.009204 -0.058002 0.034426 0.000000
2.308000 0.009204 0.031979 0.065130 0.000000
2.310000 0.009204 0.063826 0.052949 0.000000
2.312000 0.009204 0.053805 0.052949 0.000000
2.314000 0.009204 0.053739 -0.042217 0.000000
2.316000 0.009204 -0.039631 -0.063842 0.000000
2.318000 0.009204 -0.062936 -0.042505 0.000000
2.320000 0.009204 -0.043811 0.011832 0.000000
2.322000 0.009204 0.009061 0.011832 0.000000
2.324000 0.009204 0.009095 0.050574 0.000000
2.326000 0.009204 0.049636 0.012474 0.000000
2.328000 0.009204 0.014508 -0.041817 0.000000
2.330000 0.009204 -0.039013 -0.039487 0.000000
2.332000 0.009204 -0.039662 -0.039487 0.000000
2.334000 0.009204 -0.039601 0.024521 0.000000
2.336000 0.009204 0.022765 0.078992 0.000000
2.338000 0.009204 0.076349 0.059444 0.000000
2.340000 0.009204 0.060658 0.059444 0.000000
2.342000 0.009204 0.060597 -0.048800 0.000000
2.344000 0.009204 -0.045715 -0.087392 0.000000
2.346000 0.009204 -0.085453 -0.073274 0.000000
2.348000 0.009204 -0.074122 0.000587 0.000000
2.350000 0.009204 -0.003360 0.000587 0.000000
2.352000 0.009204 -0.003306 0.087357 0.000000
2.354000 0.009204 0.084877 0.036369 0.000000
2.356000 0.009204 0.039089 -0.017448 0.000000
2.358000 0.009204 -0.014513 -0.017448 0.000000
2.360000 0.009204 -0.014532 -0.066052 0.000000
2.362000 0.009204 -0.064603 -0.002345 0.000000
2.364000 0.009204 -0.005493 0.069278 0.000000
2.366000 0.009204 0.065416 0.063722 0.000000
2.368000 0.009204 0.064000 0.063722 0.000000
2.370000 0.009204 0.063945 -0.026925 0.000000
2.372000 0.009204 -0.024400 -0.075004 0.000000
2.374000 0.009204 -0.072497 -0.065684 0.000000
2.376000 0.009204 -0.066029 -0.065684 0.000000
2.378000 0.009204 -0.065928 0.072996 0.000000
2.380000 0.009204 0.069225 0.084961 0.000000
2.382000 0.009204 0.084258 0.028884 0.000000
2.384000 0.009204 0.031739 -0.031381 0.000000
2.386000 0.009204 -0.028229 -0.031381 0.000000
2.388000 0.009204 -0.028247 -0.087005 0.000000
2.390000 0.009204 -0.085387 -0.001642 0.000000
2.392000 0.009204 -0.005678 0.064104 0.000000
2.394000 0.009204 0.060565 0.042401 0.000000
2.396000 0.009204 0.043052 0.042401 0.000000
2.398000 0.009204 0.043007 -0.021899 0.000000
2.400000 0.009204 -0.020125 -0.076568 0.000000
2.402000 0.009204 -0.073871 -0.062434 0.000000
2.404000 0.009204 -0.063060 -0.062434 0.000000
2.406000 0.009204 -0.062991 0.059668 0.000000
2.408000 0.009204 0.056490 0.074594 0.000000
2.410000 0.009204 0.073766 0.017742 0.000000
2.412000 0.009204 0.020579 -0.093712 0.000000
2.414000 0.009204 -0.088107 -0.093712 0.000000
2.416000 0.009204 -0.088044 -0.080090 0.000000
2.418000 0.009204 -0.080463 0.005719 0.000000
2.420000 0.009204 0.001540 0.082680 0.000000
2.422000 0.009204 0.078669 0.082680 0.000000
2.424000 0.009204 0.078623 0.050347 0.000000
2.426000 0.009204 0.051111 -0.024325 0.000000
2.428000 0.009204 -0.020499 -0.090180 0.000000
2.430000 0.009204 -0.086809 -0.095467 0.000000
2.432000 0.009204 -0.095158 -0.095467 0.000000
2.434000 0.009204 -0.095074 0.054536 0.000000
2.436000 0.009204 0.050514 0.087404 0.000000
2.438000 0.009204 0.085570 0.035061 0.000000
2.440000 0.009204 0.037643 0.035061 0.000000
2.442000 0.009204 0.037586 -0.085791 0.000000
2.444000 0.009204 -0.082491 -0.083308 0.000000
2.446000 0.009204 -0.083287 -0.003349 0.000000
2.448000 0.009204 -0.007132 0.077041 0.000000
2.450000 0.009204 0.072676 0.077041 0.000000
2.452000 0.009204 0.072620 0.039227 0.000000
2.454000 0.009204 0.040050 -0.035518 0.000000
2.456000 0.009204 -0.031745 -0.083682 0.000000
2.458000 0.009204 -0.081237 0.003185 0.000000
2.460000 0.009204 -0.000516 0.003185 0.000000
2.462000 0.009204 -0.000478 0.091912 0.000000
2.464000 0.009204 0.089500 0.104049 0.000000
2.466000 0.009204 0.103442 0.050522 0.000000
2.468000 0.009204 0.053272 0.050522 0.000000
2.470000 0.009204 0.053170 -0.069681 0.000000
2.472000 0.009204 -0.066454 -0.058149 0.000000
2.474000 0.009204 -0.058566 0.008116 0.000000
2.476000 0.009204 0.004950 0.086706 0.000000
2.478000 0.009204 0.082485 0.086706 0.000000
2.480000 0.009204 0.082418 0.022554 0.000000
2.482000 0.009204 0.024311 -0.055669 0.000000
2.484000 0.009204 -0.051750 -0.084091 0.000000
2.486000 0.009204 -0.082752 -0.084091 0.000000
2.488000 0.009204 -0.082723 0.019672 0.000000
2.490000 0.009204 0.017120 0.117613 0.000000
2.492000 0.007670 0.112821 0.116786 0.000000
2.494000 0.007670 0.116565 -0.063248 0.000000
2.496000 0.007670 -0.054257 -0.063248 0.000000
2.498000 0.007670 -0.054274 -0.093798 0.000000
2.500000 0.007670 -0.093007 -0.091782 0.000000
2.502000 0.007670 -0.091960 0.018740 0.000000
2.504000 0.007670 0.013201 0.018740 0.000000
2.506000 0.007670 0.013209 0.107613 0.000000
2.508000 0.007670 0.105091 0.037655 0.000000
2.510000 0.007670 0.041160 -0.050471 0.000000
2.512000 0.007670 -0.045985 -0.088838 0.000000
2.514000 0.007670 -0.087024 -0.088838 0.000000
2.516000 0.007670 -0.086989 0.032915 0.000000
2.518000 0.007670 0.029790 0.115400 0.000000
2.520000 0.007670 0.111633 0.090243 0.000000
2.522000 0.007670 0.091314 -0.064549 0.000000
2.524000 0.007670 -0.056928 -0.064549 0.000000
2.526000 0.007670 -0.056965 -0.089333 0.000000
2.528000 0.007670 -0.088715 -0.066382 0.000000
2.530000 0.007670 -0.067552 0.037233 0.000000
2.532000 0.007670 0.032121 0.037233 0.000000
2.534000 0.007670 0.032117 0.098381 0.000000
2.536000 0.007670 0.096530 0.014855 0.000000
2.538000 0.007670 0.019006 -0.075905 0.000000
2.540000 0.007670 -0.071329 -0.063857 0.000000
2.542000 0.007670 -0.064253 -0.063857 0.000000
2.544000 0.006136 -0.064211 0.035033 0.000000
2.546000 0.006136 0.032432 0.095960 0.000000
2.548000 0.006136 0.093259 0.064302 0.000000
2.550000 0.006136 0.065726 0.064302 0.000000
2.552000 0.006136 0.065630 -0.069341 0.000000
2.554000 0.006136 -0.065788 -0.080203 0.000000
2.556000 0.006136 -0.079864 -0.030733 0.000000
2.558000 0.006136 -0.033236 0.140656 0.000000
2.560000 0.006136 0.132459 0.140656 0.000000
2.562000 0.006136 0.132308 0.087529 0.000000
2.564000 0.006136 0.088853 -0.010229 0.000000
2.566000 0.006136 -0.005199 -0.090202 0.000000
2.568000 0.006136 -0.086251 -0.090202 0.000000
2.570000 0.006136 -0.086246 -0.056767 0.000000
2.572000 0.006136 -0.057651 0.100166 0.000000
2.574000 0.006136 0.092533 0.129822 0.000000
2.576000 0.006136 0.128445 -0.020388 0.000000
2.578000 0.006136 -0.013243 -0.020388 0.000000
2.580000 0.006136 -0.013317 -0.076096 0.000000
2.582000 0.006136 -0.074624 -0.097865 0.000000
2.584000 0.006136 -0.097057 -0.045866 0.000000
2.586000 0.006136 -0.048494 0.105781 0.000000
2.588000 0.004602 0.098380 0.105781 0.000000
2.590000 0.004602 0.098250 0.042001 0.000000
2.592000 0.004602 0.043556 -0.036760 0.000000
2.594000 0.004602 -0.032854 -0.083626 0.000000
2.596000 0.004602 -0.081494 -0.083626 0.000000
2.598000 0.004602 -0.081476 -0.018507 0.000000
2.600000 0.004602 -0.020298 0.126889 0.000000
2.602000 0.004602 0.119770 0.123251 0.000000
2.604000 0.004602 0.123690 -0.044754 0.000000
2.606000 0.004602 -0.036560 -0.044754 0.000000
2.608000 0.004602 -0.036637 -0.093075 0.000000
2.610000 0.004602 -0.091825 -0.088514 0.000000
2.612000 0.004602 -0.088974 -0.015096 0.000000
2.614000 0.004602 -0.018778 -0.015096 0.000000
2.616000 0.004602 -0.018751 0.107583 0.000000
2.618000 0.004602 0.104270 0.028797 0.000000
2.620000 0.004602 0.032576 -0.037156 0.000000
2.622000 0.004602 -0.033927 -0.064878 0.000000
2.624000 0.004602 -0.063408 -0.064878 0.000000
2.626000 0.004602 -0.063397 0.021845 0.000000
2.628000 0.004602 0.019588 0.117719 0.000000
2.630000 0.004602 0.113354 0.104406 0.000000
2.632000 0.003068 0.104969 0.104406 0.000000
2.634000 0.003068 0.104808 -0.070718 0.000000
2.636000 0.003068 -0.065978 -0.092192 0.000000
2.638000 0.003068 -0.091339 -0.069614 0.000000
2.640000 0.003068 -0.070908 0.120434 0.000000
2.642000 0.003068 0.111343 0.120434 0.000000
2.644000 0.003068 0.111222 0.109523 0.000000
2.646000 0.003068 0.109678 0.008144 0.000000
2.648000 0.003068 0.013377 -0.070017 0.000000
2.650000 0.003068 -0.066129 -0.081442 0.000000
2.652000 0.003068 -0.080702 -0.081442 0.000000
2.654000 0.003068 -0.080638 0.036399 0.000000
2.656000 0.003068 0.033328 0.093242 0.000000
2.658000 0.003068 0.090621 -0.023506 0.000000
2.660000 0.003068 -0.018256 -0.023506 0.000000
2.662000 0.003068 -0.018311 -0.073137 0.000000
2.664000 0.003068 -0.071843 -0.071914 0.000000
2.666000 0.003068 -0.072242 -0.022505 0.000000
2.668000 0.003068 -0.024942 0.079803 0.000000
2.670000 0.003068 0.074983 0.079803 0.000000
2.672000 0.003068 0.074883 0.044604 0.000000
2.674000 0.003068 0.045384 -0.033821 0.000000
2.676000 0.003068 -0.030039 -0.089696 0.000000
2.678000 0.003068 -0.087060 -0.089696 0.000000
2.680000 0.003068 -0.087034 -0.020604 0.000000
2.682000 0.003068 -0.022512 0.085509 0.000000
2.684000 0.003068 0.080405 0.092209 0.000000
2.686000 0.003068 0.092095 -0.041114 0.000000
2.688000 0.003068 -0.034853 -0.041114 0.000000
2.690000 0.003068 -0.034903 -0.084014 0.000000
2.692000 0.001534 -0.082943 -0.068408 0.000000
2.694000 0.001534 -0.069446 0.005747 0.000000
2.696000 0.001534 0.002046 0.005747 0.000000
2.698000 0.001534 0.002034 0.065966 0.000000
2.700000 0.001534 0.064398 0.006745 0.000000
2.702000 0.001534 0.009481 -0.044242 0.000000
2.704000 0.001534 -0.041807 -0.051675 0.000000
2.706000 0.001534 -0.051188 -0.051675 0.000000
2.708000 0.001534 -0.051153 0.019104 0.000000
2.710000 0.001534 0.017250 0.094549 0.000000
2.712000 0.001534 0.090990 0.066126 0.000000
2.714000 0.001534 0.067457 -0.044140 0.000000
2.716000 0.001534 -0.038793 -0.044140 0.000000
2.718000 0.001534 -0.038820 -0.059362 0.000000
2.720000 0.001534 -0.058982 -0.037960 0.000000
2.722000 0.001534 -0.039012 0.069886 0.000000
2.724000 0.001534 0.064702 0.069886 0.000000
2.726000 0.001534 0.064617 0.026672 0.000000
2.728000 0.001534 0.027687 -0.015067 0.000000
2.730000 0.001534 -0.013089 -0.039880 0.000000
2.732000 0.001534 -0.038840 -0.020723 0.000000
2.734000 0.001534 -0.021365 -0.020723 0.000000
2.736000 0.001534 -0.021352 0.033591 0.000000
2.738000 0.001534 0.032217 0.042950 0.000000
2.740000 0.001534 0.042525 -0.058596 0.000000
2.742000 0.001534 -0.053922 -0.058596 0.000000
2.744000 0.001534 -0.053906 -0.049912 0.000000
2.746000 0.001534 -0.050216 -0.033675 0.000000
2.748000 0.001534 -0.034563 -0.007232 0.000000
2.750000 0.001534 -0.008477 0.033608 0.000000
2.752000 0.001534 0.031448 0.033608 0.000000
2.754000 0.001534 0.031402 -0.000204 0.000000
2.756000 0.001534 0.000612 -0.034214 0.000000
2.758000 0.001534 -0.032661 -0.037622 0.000000
2.760000 0.001534 -0.037481 -0.037622 0.000000
2.762000 0.001534 -0.037464 -0.002016 0.000000
2.764000 0.001534 -0.002888 0.010182 0.000000
2.766000 0.001534 0.009507 -0.005364 0.000000
2.768000 -0.000000 -0.004764 -0.028930 0.000000
2.770000 -0.000000 -0.028034 -0.028930 0.000000
2.772000 -0.000000 -0.028029 -0.027683 0.000000
2.774000 -0.000000 -0.027694 0.002544 0.000000
2.776000 -0.000000 0.001086 0.000707 0.000000
2.778000 -0.000000 0.000802 -0.015604 0.000000
2.780000 -0.000000 -0.015179 -0.015604 0.000000
2.782000 -0.000000 -0.015196 -0.017231 0.000000
2.784000 -0.000000 -0.017284 -0.013158 0.000000
2.786000 -0.000000 -0.013303 0.005045 0.000000
2.788000 -0.000000 0.004425 0.005045 0.000000
2.790000 -0.000000 0.004406 -0.009688 0.000000
2.792000 -0.000000 -0.009370 -0.021422 0.000000
2.794000 -0.000000 -0.021089 -0.027677 0.000000
2.796000 -0.000000 -0.027651 0.015867 0.000000
2.798000 -0.000000 0.013912 0.015867 0.000000
2.800000 -0.000000 0.013892 0.028452 0.000000
2.802000 -0.000000 0.028196 0.002895 0.000000
2.804000 -0.000000 0.004338 -0.045468 0.000000
2.806000 -0.000000 -0.043389 -0.045468 0.000000
2.808000 -0.000000 -0.043366 -0.038994 0.000000
2.810000 -0.000000 -0.039344 0.008433 0.000000
2.812000 -0.000000 0.006010 0.032966 0.000000
2.814000 -0.000000 0.032018 -0.010164 0.000000
2.816000 -0.000000 -0.007815 -0.010164 0.000000
2.818000 -0.000000 -0.007827 -0.038790 0.000000
2.820000 -0.000000 -0.038141 -0.048415 0.000000
2.822000 -0.000000 -0.048361 0.048961 0.000000
2.824000 -0.000000 0.044209 0.048961 0.000000
2.826000 -0.000000 0.044187 0.066581 0.000000
2.828000 -0.000000 0.066327 0.019768 0.000000
2.830000 -0.000000 0.022364 -0.029368 0.000000
2.832000 -0.000000 -0.026957 -0.063563 0.000000
2.834000 -0.000000 -0.062281 -0.063563 0.000000
2.836000 -0.000000 -0.062205 -0.004496 0.000000
2.838000 -0.000000 -0.006087 0.057714 0.000000
2.840000 -0.000000 0.055031 0.063317 0.000000
2.842000 -0.000000 0.063341 -0.056826 0.000000
2.844000 -0.000000 -0.051077 -0.056826 0.000000
2.846000 -0.000000 -0.051064 -0.082945 0.000000
2.848000 -0.000000 -0.082427 -0.049846 0.000000
2.850000 -0.000000 -0.051901 0.088528 0.000000
2.852000 -0.000000 0.082273 0.088528 0.000000
2.854000 -0.000000 0.082220 0.047443 0.000000
2.856000 -0.000000 0.048604 -0.018055 0.000000
2.858000 -0.000000 -0.014834 -0.089909 0.000000
2.860000 -0.000000 -0.086605 -0.028311 0.000000
2.862000 -0.000000 -0.031706 -0.028311 0.000000
2.864000 -0.000000 -0.031627 0.080118 0.000000
2.866000 -0.000000 0.077452 0.124986 0.000000
2.868000 -0.000000 0.123400 -0.043168 0.000000
2.870000 -0.000000 -0.035046 -0.043168 0.000000
2.872000 -0.000000 -0.035062 -0.096078 0.000000
2.874000 -0.000000 -0.094737 -0.080582 0.000000
2.876000 -0.000000 -0.081821 -0.002463 0.000000
2.878000 -0.000000 -0.006399 0.092287 0.000000
2.880000 -0.000000 0.088257 0.092287 0.000000
2.882000 -0.000000 0.088171 0.004349 0.000000
2.884000 -0.000000 0.006564 -0.061989 0.000000
2.886000 -0.000000 -0.058876 -0.048734 0.000000
2.888000 -0.000000 -0.049879 -0.048734 0.000000
2.890000 -0.000000 -0.049794 0.044778 0.000000
2.892000 -0.000000 0.042332 0.175115 0.000000
2.894000 -0.000000 0.169177 0.059587 0.000000
2.896000 -0.000000 0.066114 -0.100545 0.000000
2.898000 -0.000000 -0.092768 -0.100545 0.000000
2.900000 -0.000000 -0.092726 -0.089173 0.000000
2.902000 -0.000000 -0.089705 -0.028469 0.000000
2.904000 -0.000000 -0.031776 0.153001 0.000000
2.906000 -0.000000 0.145012 0.054640 0.000000
2.908000 -0.000000 0.059321 0.054640 0.000000
2.910000 0.001534 0.059243 -0.045049 0.000000
2.912000 0.001534 -0.042341 -0.103419 0.000000
2.914000 -0.000000 -0.100931 0.007915 0.000000
2.916000 -0.000000 0.002288 0.007915 0.000000
2.918000 0.001534 0.002352 0.162209 0.000000
2.920000 0.001534 0.158552 0.128049 0.000000
2.922000 0.001534 0.130517 -0.002165 0.000000
2.924000 0.001534 0.004493 -0.095011 0.000000
2.926000 0.001534 -0.090731 -0.095011 0.000000
2.928000 0.001534 -0.090651 -0.059810 0.000000
2.930000 0.001534 -0.060948 0.042358 0.000000
2.932000 0.001534 0.037241 0.078953 0.000000
2.934000 0.001534 0.077931 0.078953 0.000000
2.936000 0.001534 0.077848 -0.025036 0.000000
2.938000 0.001534 -0.022380 -0.096909 0.000000
2.940000 0.001534 -0.093627 -0.095534 0.000000
2.942000 0.001534 -0.096055 0.103035 0.000000
2.944000 0.001534 0.093439 0.103035 0.000000
2.946000 0.001534 0.093438 0.158067 0.000000
2.948000 0.001534 0.157011 0.066434 0.000000
2.950000 0.001534 0.071329 -0.117075 0.000000
2.952000 0.001534 -0.108260 -0.117075 0.000000
2.954000 0.001534 -0.108206 -0.088896 0.000000
2.956000 0.001534 -0.089851 0.018406 0.000000
2.958000 0.001534 0.013056 0.154596 0.000000
2.960000 0.001534 0.148377 -0.021130 0.000000
2.962000 0.001534 -0.012215 -0.021130 0.000000
2.964000 0.001534 -0.012257 -0.099053 0.000000
2.966000 0.001534 -0.096978 -0.107213 0.000000
2.968000 0.001534 -0.107506 0.040974 0.000000
2.970000 0.001534 0.033379 0.174332 0.000000
2.972000 0.001534 0.167688 0.174332 0.000000
2.974000 0.001534 0.167569 0.081485 0.000000
2.976000 0.001534 0.084545 -0.027829 0.000000
2.978000 0.001534 -0.022244 -0.096205 0.000000
2.980000 0.001534 -0.093029 -0.096205 0.000000
2.982000 0.001534 -0.092943 -0.044261 0.000000
2.984000 0.001534 -0.045732 0.100227 0.000000
2.986000 0.001534 0.093229 0.048488 0.000000
2.988000 0.001534 0.051194 -0.054998 0.000000
2.990000 0.001534 -0.049904 -0.054998 0.000000
2.992000 0.001534 -0.049923 -0.096256 0.000000
2.994000 0.001534 -0.095358 -0.073304 0.000000
2.996000 0.001534 -0.074872 0.133950 0.000000
2.998000 0.001534 0.124079 0.133950 0.000000
3.000000 0.001534 0.124033 0.120077 0.000000
3.002000 0.001534 0.120672 -0.001785 0.000000
3.004000 0.001534 0.004533 -0.096159 0.000000
3.006000 0.001534 -0.091619 -0.065277 0.000000
3.008000 0.001534 -0.066871 -0.065277 0.000000
3.010000 0.001534 -0.066747 0.049655 0.000000
3.012000 0.001534 0.046538 0.159726 0.000000
3.014000 0.001534 0.154569 -0.024782 0.000000
3.016000 0.001534 -0.015372 -0.024782 0.000000
3.018000 0.001534 -0.015426 -0.093147 0.000000
3.020000 0.001534 -0.091262 -0.093025 0.000000
3.022000 0.001534 -0.093416 -0.035210 0.000000
3.024000 0.001534 -0.038194 0.128707 0.000000
3.026000 0.001534 0.120773 0.128707 0.000000
3.028000 0.003068 0.120701 0.033851 0.000000
3.030000 0.003068 0.036394 -0.048670 0.000000
3.032000 0.003068 -0.044633 -0.069466 0.000000
3.034000 0.003068 -0.068572 0.004880 0.000000
3.036000 0.003068 0.001403 0.004880 0.000000
3.038000 0.003068 0.001480 0.120253 0.000000
3.040000 0.003068 0.117390 0.100650 0.000000
3.042000 0.003068 0.101970 -0.091834 0.000000
3.044000 0.003068 -0.082294 -0.091834 0.000000
3.046000 0.003068 -0.082263 -0.079621 0.000000
3.048000 0.003068 -0.080036 -0.062684 0.000000
3.050000 0.003068 -0.063707 0.129016 0.000000
3.052000 0.003068 0.119835 0.074456 0.000000
3.054000 0.003068 0.077061 0.074456 0.000000
3.056000 0.003068 0.076961 -0.043888 0.000000
3.058000 0.003068 -0.040569 -0.091249 0.000000
3.060000 0.003068 -0.089189 -0.037192 0.000000
3.062000 0.003068 -0.039911 -0.037192 0.000000
3.064000 0.003068 -0.039808 0.076491 0.000000
3.066000 0.003068 0.073590 0.107453 0.000000
3.068000 0.003068 0.106264 -0.046741 0.000000
3.070000 0.003068 -0.039321 -0.079452 0.000000
3.072000 0.003068 -0.077855 -0.079452 0.000000
3.074000 0.003068 -0.077795 -0.071145 0.000000
3.076000 0.003068 -0.071513 0.019606 0.000000
3.078000 0.003068 0.015136 0.080939 0.000000
3.080000 0.003068 0.077945 0.080939 0.000000
3.082000 0.003068 0.077858 -0.009636 0.000000
3.084000 0.003068 -0.007250 -0.057950 0.000000
3.086000 0.003068 -0.055682 -0.037608 0.000000
3.088000 0.003068 -0.038692 0.049295 0.000000
3.090000 0.003068 0.045079 0.049295 0.000000
3.092000 0.003068 0.045087 0.111696 0.000000
3.094000 0.003068 0.110242 0.070009 0.000000
3.096000 0.003068 0.072355 -0.075551 0.000000
3.098000 0.003068 -0.068332 -0.063762 0.000000
3.100000 0.003068 -0.064306 -0.063762 0.000000
3.102000 0.003068 -0.064237 -0.010478 0.000000
3.104000 0.003068 -0.011970 0.076582 0.000000
3.106000 0.003068 0.072423 0.021115 0.000000
3.108000 0.003068 0.023780 0.021115 0.000000
3.110000 0.003068 0.023724 -0.042850 0.000000
3.112000 0.003068 -0.041115 -0.065005 0.000000
3.114000 0.003068 -0.064095 0.008073 0.000000
3.116000 0.003068 0.004650 0.084684 0.000000
3.118000 0.003068 0.080936 0.084684 0.000000
3.120000 0.003068 0.080890 0.055059 0.000000
3.122000 0.003068 0.056027 -0.017808 0.000000
3.124000 0.003068 -0.014215 -0.057364 0.000000
3.126000 0.003068 -0.055545 -0.057364 0.000000
3.128000 0.003068 -0.055487 -0.035125 0.000000
3.130000 0.003068 -0.035745 0.036739 0.000000
3.132000 0.003068 0.033254 0.024638 0.000000
3.134000 0.003068 0.025322 -0.050706 0.000000
3.136000 0.003068 -0.047088 -0.050706 0.000000
3.138000 0.003068 -0.047070 -0.064153 0.000000
3.140000 0.003068 -0.063911 -0.050421 0.000000
3.142000 0.003068 -0.051423 0.050618 0.000000
3.144000 0.003068 0.045608 0.050618 0.000000
3.146000 0.003068 0.045600 0.066153 0.000000
3.148000 0.003068 0.065838 0.003242 0.000000
3.150000 0.003068 0.006508 -0.069973 0.000000
3.152000 0.003068 -0.066347 -0.042697 0.000000
3.154000 0.003068 -0.044072 -0.042697 0.000000
3.156000 0.003068 -0.044013 0.006806 0.000000
3.158000 0.003068 0.005411 0.076686 0.000000
3.160000 0.003068 0.073204 -0.032362 0.000000
3.162000 0.003068 -0.026913 -0.051016 0.000000
3.164000 0.003068 -0.050086 -0.051016 0.000000
3.166000 0.003068 -0.050074 -0.049210 0.000000
3.168000 0.003068 -0.049417 0.027996 0.000000
3.170000 0.003068 0.024293 0.052021 0.000000
3.172000 0.003068 0.050762 0.052021 0.000000
3.174000 0.003068 0.050711 0.011933 0.000000
3.176000 0.003068 0.013052 -0.036086 0.000000
3.178000 0.003068 -0.033767 -0.023323 0.000000
3.180000 0.003068 -0.023977 0.012505 0.000000
3.182000 0.003068 0.010768 0.012505 0.000000
3.184000 0.003068 0.010773 0.056752 0.000000
3.186000 0.003068 0.055587 0.037949 0.000000
3.188000 0.003068 0.039032 -0.036764 0.000000
3.190000 0.003068 -0.032959 -0.036764 0.000000
3.192000 0.003068 -0.032974 -0.044700 0.000000
3.194000 0.003068 -0.044499 -0.011228 0.000000
3.196000 0.003068 -0.012961 0.043630 0.000000
3.198000 0.003068 0.040663 0.024624 0.000000
3.200000 0.003068 0.025540 0.024624 0.000000
3.202000 0.003068 0.025483 -0.019384 0.000000
3.204000 0.003068 -0.018154 -0.032507 0.000000
3.206000 0.003068 -0.031841 -0.010751 0.000000
3.208000 0.003068 -0.011770 -0.010751 0.000000
3.210000 0.003068 -0.011747 0.023002 0.000000
3.212000 0.003068 0.022023 0.013461 0.000000
3.214000 0.003068 0.013898 -0.034415 0.000000
3.216000 0.003068 -0.031975 -0.037460 0.000000
3.218000 0.003068 -0.037215 -0.037460 0.000000
3.220000 0.003068 -0.037195 -0.006605 0.000000
3.222000 0.003068 -0.007496 0.010070 0.000000
3.224000 0.003068 0.009177 -0.009244 0.000000
3.226000 0.003068 -0.008622 -0.032976 0.000000
3.228000 0.003068 -0.031780 -0.032976 0.000000
3.230000 0.003068 -0.031778 -0.019820 0.000000
3.232000 0.003068 -0.020179 -0.017373 0.000000
3.234000 0.003068 -0.017390 0.010958 0.000000
3.236000 0.003068 0.009288 0.010958 0.000000
3.238000 0.003068 0.009277 0.005052 0.000000
3.240000 0.003068 0.005088 -0.002591 0.000000
3.242000 0.003068 -0.002273 -0.020721 0.000000
3.244000 0.003068 -0.019484 -0.006393 0.000000
3.246000 0.003068 -0.007084 -0.006393 0.000000
3.248000 0.003068 -0.007104 -0.009229 0.000000
3.250000 0.003068 -0.009209 -0.009808 0.000000
3.252000 0.003068 -0.010234 -0.023764 0.000000
3.254000 0.003068 -0.023129 -0.023764 0.000000
3.256000 0.003068 -0.023146 -0.003157 0.000000
3.258000 0.003068 -0.003692 -0.004794 0.000000
3.260000 0.003068 -0.004642 -0.004927 0.000000
3.262000 0.003068 -0.005073 -0.013133 0.000000
3.264000 0.003068 -0.012980 -0.013133 0.000000
3.266000 0.003068 -0.012988 -0.005634 0.000000
3.268000 0.003068 -0.005912 -0.001220 0.000000
3.270000 0.003068 -0.001280 0.009552 0.000000
3.272000 0.003068 0.009203 0.009552 0.000000
3.274000 0.003068 0.009144 -0.009717 0.000000
3.276000 0.003068 -0.009278 -0.013486 0.000000
3.278000 0.001534 -0.013622 0.005458 0.000000
3.280000 0.001534 0.004449 0.018490 0.000000
3.282000 0.001534 0.018153 0.018490 0.000000
3.284000 0.001534 0.018099 0.024452 0.000000
3.286000 0.001534 0.024372 -0.006022 0.000000
3.288000 0.001534 -0.004490 -0.026038 0.000000
3.290000 0.001534 -0.025558 -0.003456 0.000000
3.292000 0.001534 -0.004744 -0.003456 0.000000
3.294000 0.001534 -0.004767 0.035516 0.000000
3.296000 0.001534 0.034594 0.018194 0.000000
3.298000 0.001534 0.019474 -0.022632 0.000000
3.300000 0.001534 -0.020710 -0.022632 0.000000
3.302000 0.001534 -0.020738 -0.046288 0.000000
3.304000 0.001534 -0.045835 -0.038936 0.000000
3.306000 0.001534 -0.039668 0.034722 0.000000
3.308000 0.001534 0.031450 0.039472 0.000000
3.310000 0.001534 0.039346 0.039472 0.000000
3.312000 0.001534 0.039261 -0.011171 0.000000
3.314000 0.001534 -0.009847 -0.055896 0.000000
3.316000 0.001534 -0.054275 -0.020459 0.000000
3.318000 0.001534 -0.022441 -0.020459 0.000000
3.320000 0.001534 -0.022426 0.026152 0.000000
3.322000 0.001534 0.025067 0.044874 0.000000
3.324000 0.001534 0.044424 -0.043056 0.000000
3.326000 0.001534 -0.039027 -0.076112 0.000000
3.328000 0.001534 -0.074796 -0.076112 0.000000
3.330000 0.001534 -0.074769 -0.050414 0.000000
3.332000 0.001534 -0.051410 0.025323 0.000000
3.334000 0.001534 0.021549 0.048245 0.000000
3.336000 0.001534 0.047725 0.048245 0.000000
3.338000 0.001534 0.047630 -0.028595 0.000000
3.340000 0.001534 -0.026682 -0.073469 0.000000
3.342000 0.001534 -0.071682 -0.017408 0.000000
3.344000 0.001534 -0.020684 0.060225 0.000000
3.346000 0.001534 0.056664 0.060225 0.000000
3.348000 0.001534 0.056591 0.104696 0.000000
3.350000 0.001534 0.103909 0.010067 0.000000
3.352000 0.001534 0.014836 -0.096909 0.000000
3.354000 -0.000000 -0.092148 -0.054590 0.000000
3.356000 -0.000000 -0.057053 -0.054590 0.000000
3.358000 -0.000000 -0.057016 0.031081 0.000000
3.360000 -0.000000 0.028736 0.057340 0.000000
3.362000 -0.000000 0.057014 -0.024311 0.000000
3.364000 -0.000000 -0.020635 -0.024311 0.000000
3.366000 -0.000000 -0.020720 -0.086249 0.000000
3.368000 -0.000000 -0.084831 -0.081223 0.000000
3.370000 -0.000000 -0.082104 0.087259 0.000000
3.372000 -0.000000 0.078900 0.143356 0.000000
3.374000 -0.000000 0.141201 0.143356 0.000000
3.376000 -0.000000 0.141008 0.008613 0.000000
3.378000 -0.000000 0.012326 -0.101685 0.000000
3.380000 -0.000000 -0.096802 -0.046296 0.000000
3.382000 -0.000000 -0.049490 -0.046296 0.000000
3.384000 -0.000000 -0.049463 0.046433 0.000000
3.386000 -0.000000 0.043865 0.162135 0.000000
3.388000 -0.000000 0.157162 -0.022660 0.000000
3.390000 -0.000000 -0.013374 -0.100484 0.000000
3.392000 -0.000000 -0.096705 -0.100484 0.000000
3.394000 -0.000000 -0.096709 -0.080435 0.000000
3.396000 -0.000000 -0.081368 0.121957 0.000000
3.398000 -0.000000 0.112434 0.158892 0.000000
3.400000 -0.000000 0.157685 0.158892 0.000000
3.402000 -0.000000 0.157484 0.001915 0.000000
3.404000 -0.000000 0.006123 -0.085255 0.000000
3.406000 -0.000000 -0.081280 -0.037870 0.000000
3.408000 -0.000000 -0.040934 0.049818 0.000000
3.410000 -0.000000 0.045477 0.049818 0.000000
3.412000 -0.000000 0.045470 0.167069 0.000000
3.414000 -0.000000 0.164361 -0.049460 0.000000
3.416000 -0.000000 -0.038282 -0.111809 0.000000
3.418000 -0.000000 -0.108700 -0.085341 0.000000
3.420000 -0.001534 -0.087354 -0.085341 0.000000
3.422000 -0.001534 -0.087317 -0.022088 0.000000
3.424000 -0.001534 -0.024081 0.159044 0.000000
3.426000 -0.000000 0.150964 0.004257 0.000000
3.428000 -0.000000 0.011844 0.004257 0.000000
3.430000 -0.000000 0.011742 -0.102846 0.000000
3.432000 -0.001534 -0.100106 -0.112520 0.000000
3.434000 -0.001534 -0.112753 0.076634 0.000000
3.436000 -0.001534 0.067226 0.179537 0.000000
3.438000 -0.001534 0.175103 0.179537 0.000000
3.440000 -0.000000 0.174940 0.078564 0.000000
3.442000 -0.000000 0.081552 -0.117393 0.000000
3.444000 -0.000000 -0.108146 -0.094699 0.000000
3.446000 -0.001534 -0.096171 -0.094699 0.000000
3.448000 -0.001534 -0.096111 -0.002336 0.000000
3.450000 -0.001534 -0.005099 0.113756 0.000000
3.452000 -0.001534 0.108185 -0.010025 0.000000
3.454000 -0.001534 -0.003416 -0.080549 0.000000
3.456000 -0.001534 -0.077104 -0.080549 0.000000
3.458000 -0.001534 -0.077147 -0.097305 0.000000
3.460000 -0.001534 -0.097222 0.049904 0.000000
3.462000 -0.001534 0.042666 0.179875 0.000000
3.464000 -0.001534 0.173728 0.179875 0.000000
3.466000 -0.001534 0.173585 0.074211 0.000000
3.468000 -0.001534 0.077277 -0.044032 0.000000
3.470000 -0.001534 -0.038238 -0.076127 0.000000
3.472000 -0.001534 -0.074904 -0.009437 0.000000
3.474000 -0.001534 -0.012523 -0.009437 0.000000
3.476000 -0.001534 -0.012456 0.153497 0.000000
3.478000 -0.001534 0.149699 -0.002169 0.000000
3.480000 -0.001534 0.005396 -0.090892 0.000000
3.482000 -0.001534 -0.086490 -0.090700 0.000000
3.484000 -0.001534 -0.091154 -0.090700 0.000000
3.486000 -0.001534 -0.091120 -0.038116 0.000000
3.488000 -0.001534 -0.039868 0.142144 0.000000
3.490000 -0.000000 0.133242 0.053997 0.000000
3.492000 -0.001534 0.058804 0.053997 0.000000
3.494000 -0.001534 0.058712 -0.075425 0.000000
3.496000 -0.001534 -0.071833 -0.062383 0.000000
3.498000 -0.001534 -0.063378 -0.032383 0.000000
3.500000 -0.001534 -0.034005 0.084954 0.000000
3.502000 -0.001534 0.079317 0.084954 0.000000
3.504000 -0.001534 0.079321 0.117991 0.000000
3.506000 -0.001534 0.117289 -0.064928 0.000000
3.508000 -0.000000 -0.056047 -0.085210 0.000000
3.510000 -0.000000 -0.084270 -0.085210 0.000000
3.512000 -0.000000 -0.084259 -0.051263 0.000000
3.514000 -0.000000 -0.052353 0.014297 0.000000
3.516000 -0.000000 0.011527 0.023820 0.000000
3.518000 -0.000000 0.023276 -0.072966 0.000000
3.520000 -0.000000 -0.068656 -0.072966 0.000000
3.522000 -0.000000 -0.068641 -0.076112 0.000000
3.524000 -0.000000 -0.076241 0.003288 0.000000
3.526000 -0.000000 -0.000673 0.056766 0.000000
3.528000 -0.000000 0.054190 0.056766 0.000000
3.530000 -0.000000 0.054186 0.073463 0.000000
3.532000 -0.000000 0.073089 -0.021192 0.000000
3.534000 -0.000000 -0.016460 -0.064480 0.000000
3.536000 -0.000000 -0.062119 -0.046228 0.000000
3.538000 -0.000000 -0.047124 -0.046228 0.000000
3.540000 -0.000000 -0.047051 -0.001496 0.000000
3.542000 -0.000000 -0.002679 0.017489 0.000000
3.544000 -0.000000 0.016275 -0.024790 0.000000
3.546000 -0.000000 -0.022870 -0.026183 0.000000
3.548000 -0.000000 -0.026131 -0.026183 0.000000
3.550000 -0.000000 -0.026143 -0.010258 0.000000
3.552000 -0.000000 -0.010783 0.020650 0.000000
3.554000 -0.000000 0.019466 0.000920 0.000000
3.556000 -0.000000 0.001771 0.000920 0.000000
3.558000 -0.000000 0.001783 -0.053276 0.000000
3.560000 -0.000000 -0.051947 -0.017932 0.000000
3.562000 -0.000000 -0.019740 0.013639 0.000000
3.564000 -0.000000 0.012115 0.008138 0.000000
3.566000 -0.000000 0.008693 0.008138 0.000000
3.568000 -0.000000 0.008725 0.017556 0.000000
3.570000 -0.000000 0.017210 -0.005104 0.000000
3.572000 -0.000000 -0.004303 0.005944 0.000000
3.574000 -0.000000 0.005730 0.005944 0.000000
3.576000 -0.000000 0.005719 0.004998 0.000000
3.578000 -0.000000 0.005190 -0.028072 0.000000
3.580000 -0.000000 -0.026526 -0.038416 0.000000
3.582000 -0.000000 -0.038209 -0.038544 0.000000
3.584000 -0.000000 -0.038742 -0.038544 0.000000
3.586000 -0.000000 -0.038691 0.021885 0.000000
3.588000 -0.000000 0.020290 0.038797 0.000000
3.590000 0.001534 0.038384 -0.020278 0.000000
3.592000 0.001534 -0.017330 -0.020278 0.000000
3.594000 0.001534 -0.017293 -0.047583 0.000000
3.596000 0.001534 -0.046969 -0.042055 0.000000
3.598000 0.001534 -0.042717 0.035868 0.000000
3.600000 0.001534 0.032446 0.046355 0.000000
3.602000 0.001534 0.046053 0.046355 0.000000
3.604000 0.001534 0.046035 -0.016547 0.000000
3.606000 0.001534 -0.014826 -0.060055 0.000000
3.608000 0.001534 -0.058554 -0.017057 0.000000
3.610000 0.001534 -0.019314 0.050846 0.000000
3.612000 0.001534 0.047876 0.050846 0.000000
3.614000 0.001534 0.047888 0.104796 0.000000
3.616000 0.001534 0.103793 -0.056098 0.000000
3.618000 0.001534 -0.048335 -0.095414 0.000000
3.620000 0.001534 -0.093683 -0.095414 0.000000
3.622000 0.001534 -0.093605 -0.053734 0.000000
3.624000 0.001534 -0.055199 0.098688 0.000000
3.626000 0.001534 0.092008 0.056630 0.000000
3.628000 0.001534 0.059050 -0.035576 0.000000
3.630000 0.001534 -0.031122 -0.035576 0.000000
3.632000 0.001534 -0.031096 -0.088188 0.000000
3.634000 0.001534 -0.086964 0.004821 0.000000
3.636000 0.001534 -0.000288 0.102030 0.000000
3.638000 0.001534 0.097654 0.102030 0.000000
3.640000 0.001534 0.097620 0.131795 0.000000
3.642000 0.001534 0.131635 -0.081930 0.000000
3.644000 0.001534 -0.071737 -0.117115 0.000000
3.646000 0.001534 -0.115528 -0.049052 0.000000
3.648000 0.001534 -0.052970 -0.049052 0.000000
3.650000 0.001534 -0.052857 0.041417 0.000000
3.652000 0.003068 0.039066 0.063444 0.000000
3.654000 0.003068 0.063465 -0.039159 0.000000
3.656000 0.003068 -0.034538 -0.039159 0.000000
3.658000 0.003068 -0.034534 -0.097251 0.000000
3.660000 0.003068 -0.095870 0.025171 0.000000
3.662000 0.003068 0.018457 0.124270 0.000000
3.664000 0.003068 0.119690 0.154636 0.000000
3.666000 0.003068 0.154393 0.154636 0.000000
3.668000 0.003068 0.154259 -0.014636 0.000000
3.670000 0.003068 -0.010022 -0.112909 0.000000
3.672000 0.003068 -0.108639 -0.028856 0.000000
3.674000 0.003068 -0.033447 0.072014 0.000000
3.676000 0.003068 0.067200 0.072014 0.000000
3.678000 0.003068 0.067241 0.185703 0.000000
3.680000 0.003068 0.183457 -0.052812 0.000000
3.682000 0.003068 -0.041077 -0.114581 0.000000
3.684000 0.003068 -0.111531 -0.114581 0.000000
3.686000 0.003068 -0.111469 -0.069204 0.000000
3.688000 0.003068 -0.070816 0.135331 0.000000
3.690000 0.003068 0.126142 0.137508 0.000000
3.692000 0.004602 0.137991 -0.036012 0.000000
3.694000 0.004602 -0.027462 -0.036012 0.000000
3.696000 0.004602 -0.027479 -0.117136 0.000000
3.698000 0.003068 -0.115082 -0.020599 0.000000
3.700000 0.003068 -0.026211 0.095663 0.000000
3.702000 0.004602 0.089972 0.095663 0.000000
3.704000 0.004602 0.090016 0.188980 0.000000
3.706000 0.004602 0.187028 -0.073306 0.000000
3.708000 0.004602 -0.059837 -0.116797 0.000000
3.710000 0.004602 -0.114573 -0.062136 0.000000
3.712000 0.004602 -0.065383 -0.062136 0.000000
3.714000 0.004602 -0.065292 0.017301 0.000000
3.716000 0.004602 0.015169 0.106089 0.000000
3.718000 0.004602 0.102532 -0.021177 0.000000
3.720000 0.004602 -0.015224 -0.021177 0.000000
3.722000 0.004602 -0.015247 -0.108242 0.000000
3.724000 0.004602 -0.106068 -0.013268 0.000000
3.726000 0.004602 -0.018434 0.161575 0.000000
3.728000 0.004602 0.153652 0.211544 0.000000
3.730000 0.004602 0.209884 0.211544 0.000000
3.732000 0.004602 0.209711 0.011426 0.000000
3.734000 0.004602 0.017029 -0.113949 0.000000
3.736000 0.004602 -0.108255 -0.070833 0.000000
3.738000 0.004602 -0.073339 0.036822 0.000000
3.740000 0.004602 0.031476 0.036822 0.000000
3.742000 0.006136 0.031578 0.115261 0.000000
3.744000 0.006136 0.113579 -0.034460 0.000000
3.746000 0.006136 -0.027051 -0.083709 0.000000
3.748000 0.006136 -0.081256 -0.083709 0.000000
3.750000 0.006136 -0.081232 -0.061949 0.000000
3.752000 0.006136 -0.062836 0.116880 0.000000
3.754000 0.006136 0.108622 0.172801 0.000000
3.756000 0.006136 0.170372 0.018177 0.000000
3.758000 0.006136 0.026078 0.018177 0.000000
3.760000 0.006136 0.026030 -0.114676 0.000000
3.762000 0.006136 -0.111222 -0.052065 0.000000
3.764000 0.006136 -0.055516 0.088179 0.000000
3.766000 0.006136 0.081632 0.088179 0.000000
3.768000 0.006136 0.081682 0.240898 0.000000
3.770000 0.006136 0.237677 -0.050420 0.000000
3.772000 0.006136 -0.036106 -0.107355 0.000000
3.774000 0.006136 -0.104398 -0.070605 0.000000
3.776000 0.006136 -0.073050 -0.070605 0.000000
3.778000 0.006136 -0.072975 -0.017216 0.000000
3.780000 0.006136 -0.018817 0.154548 0.000000
3.782000 0.006136 0.146406 -0.006944 0.000000
3.784000 0.006136 0.001351 -0.006944 0.000000
3.786000 0.006136 0.001325 -0.083521 0.000000
3.788000 0.006136 -0.081405 -0.055753 0.000000
3.790000 0.006136 -0.057444 0.055212 0.000000
3.792000 0.006136 0.049670 0.190475 0.000000
3.794000 0.006136 0.184386 0.190475 0.000000
3.796000 0.007670 0.184303 0.103112 0.000000
3.798000 0.007670 0.105733 -0.103643 0.000000
3.800000 0.007670 -0.093710 -0.081122 0.000000
3.802000 0.007670 -0.082274 -0.020156 0.000000
3.804000 0.007670 -0.023136 -0.020156 0.000000
3.806000 0.007670 -0.023022 0.149525 0.000000
3.808000 0.007670 0.145673 -0.015718 0.000000
3.810000 0.007670 -0.007620 -0.091056 0.000000
3.812000 0.007670 -0.087416 -0.091056 0.000000
3.814000 0.007670 -0.087360 -0.073963 0.000000
3.816000 0.007670 -0.074746 0.067214 0.000000
3.818000 0.007670 0.060173 0.166058 0.000000
3.820000 0.007670 0.161145 0.083590 0.000000
3.822000 0.007670 0.088523 0.083590 0.000000
3.824000 0.007670 0.088423 -0.095639 0.000000
3.826000 0.007670 -0.090734 -0.082374 0.000000
3.828000 0.007670 -0.083244 -0.052168 0.000000
3.830000 0.007670 -0.053841 -0.052168 0.000000
3.832000 0.007670 -0.053689 0.098444 0.000000
3.834000 0.007670 0.094632 0.058639 0.000000
3.836000 0.007670 0.060854 -0.052745 0.000000
3.838000 0.009204 -0.047384 -0.070693 0.000000
3.840000 0.009204 -0.070062 -0.070693 0.000000
3.842000 0.009204 -0.070046 0.050094 0.000000
3.844000 0.009204 0.047167 0.139927 0.000000
3.846000 0.009204 0.136207 0.027415 0.000000
3.848000 0.009204 0.033107 0.027415 0.000000
3.850000 0.009204 0.033084 -0.098567 0.000000
3.852000 0.009204 -0.095264 -0.059134 0.000000
3.854000 0.009204 -0.061649 0.032552 0.000000
3.856000 0.009204 0.027864 0.124252 0.000000
3.858000 0.009204 0.119944 0.124252 0.000000
3.860000 0.009204 0.119924 0.180417 0.000000
3.862000 0.009204 0.179321 -0.060615 0.000000
3.864000 0.009204 -0.048316 -0.066321 0.000000
3.866000 0.009204 -0.065767 -0.062934 0.000000
3.868000 0.009204 -0.063243 -0.062934 0.000000
3.870000 0.009204 -0.063160 0.115777 0.000000
3.872000 0.009204 0.111309 0.061627 0.000000
3.874000 0.009204 0.064545 -0.041736 0.000000
3.876000 0.009204 -0.036526 -0.041736 0.000000
3.878000 0.009204 -0.036527 -0.060329 0.000000
3.880000 0.009204 -0.059958 0.036396 0.000000
3.882000 0.009204 0.031579 0.134676 0.000000
3.884000 0.009204 0.130407 0.108951 0.000000
3.886000 0.009204 0.110661 0.108951 0.000000
3.888000 0.009204 0.110561 -0.095672 0.000000
3.890000 0.009204 -0.090309 -0.067810 0.000000
3.892000 0.009204 -0.069490 -0.029482 0.000000
3.894000 0.009204 -0.031659 -0.029482 0.000000
3.896000 0.009204 -0.031573 0.047241 0.000000
3.898000 0.010738 0.045412 0.096040 0.000000
3.900000 0.010738 0.093735 -0.030771 0.000000
3.902000 0.010738 -0.024436 -0.038780 0.000000
3.904000 0.010738 -0.038304 -0.038780 0.000000
3.906000 0.010738 -0.038300 -0.000377 0.000000
3.908000 0.010738 -0.001382 0.096369 0.000000
3.910000 0.010738 0.091778 0.087494 0.000000
3.912000 0.010738 0.088106 0.087494 0.000000
3.914000 0.010738 0.088013 -0.048584 0.000000
3.916000 0.010738 -0.044817 -0.054637 0.000000
3.918000 0.010738 -0.054635 -0.011538 0.000000
3.920000 0.010738 -0.013746 0.066230 0.000000
3.922000 0.010738 0.062680 0.066230 0.000000
3.924000 0.010738 0.062719 0.052522 0.000000
3.926000 0.010738 0.052934 -0.041019 0.000000
3.928000 0.010738 -0.036443 -0.052413 0.000000
3.930000 0.010738 -0.051963 -0.039809 0.000000
3.932000 0.010738 -0.040678 -0.039809 0.000000
3.934000 0.010738 -0.040648 0.086278 0.000000
3.936000 0.010738 0.083163 0.063179 0.000000
3.938000 0.010738 0.064588 -0.050988 0.000000
3.940000 0.010738 -0.045158 -0.050988 0.000000
3.942000 0.010738 -0.045141 -0.070203 0.000000
3.944000 0.010738 -0.069766 0.001747 0.000000
3.946000 0.010738 -0.002015 0.078956 0.000000
3.948000 0.010738 0.075219 0.128011 0.000000
3.950000 0.010738 0.125804 0.128011 0.000000
3.952000 0.010738 0.125683 -0.055706 0.000000
3.954000 0.010738 -0.050791 -0.065847 0.000000
3.956000 0.010738 -0.065440 -0.042063 0.000000
3.958000 0.010738 -0.043482 -0.042063 0.000000
3.960000 0.010738 -0.043420 -0.004989 0.000000
3.962000 0.010738 -0.005924 0.051272 0.000000
3.964000 0.010738 0.048578 -0.031557 0.000000
3.966000 0.010738 -0.027584 -0.030312 0.000000
3.968000 0.010738 -0.030468 -0.030312 0.000000
3.970000 0.010738 -0.030484 0.019754 0.000000
3.972000 0.010738 0.018312 0.081114 0.000000
3.974000 0.010738 0.078268 0.075363 0.000000
3.976000 0.012272 0.075918 0.075363 0.000000
3.978000 0.012272 0.075842 -0.032527 0.000000
3.980000 0.012272 -0.029477 -0.075623 0.000000
3.982000 0.012272 -0.073565 -0.033641 0.000000
3.984000 0.012272 -0.035874 0.027603 0.000000
3.986000 0.012272 0.024550 0.027603 0.000000
3.988000 0.012272 0.024590 0.077417 0.000000
3.990000 0.012272 0.076000 -0.019604 0.000000
3.992000 0.012272 -0.014740 -0.021981 0.000000
3.994000 0.012272 -0.021765 -0.029920 0.000000
3.996000 0.012272 -0.029573 -0.029920 0.000000
3.998000 0.010738 -0.029572 0.062591 0.000000
4.000000 0.010738 0.060316 0.044661 0.000000
4.002000 0.010738 0.045737 -0.051293 0.000000
4.004000 0.010738 -0.046516 -0.051293 0.000000
4.006000 0.010738 -0.046525 -0.045056 0.000000
4.008000 0.012272 -0.045349 0.016347 0.000000
4.010000 0.012272 0.013205 0.074711 0.000000
4.012000 0.012272 0.072057 0.121039 0.000000
4.014000 0.012272 0.118980 0.121039 0.000000
4.016000 0.012272 0.118873 -0.052048 0.000000
4.018000 0.012272 -0.047369 -0.054402 0.000000
4.020000 0.012272 -0.054348 -0.027125 0.000000
4.022000 0.012272 -0.028821 -0.027125 0.000000
4.024000 0.012272 -0.028824 -0.005339 0.000000
4.026000 0.012272 -0.005906 0.052415 0.000000
4.028000 0.012272 0.049519 -0.033021 0.000000
4.030000 0.012272 -0.028858 -0.032581 0.000000
4.032000 0.012272 -0.032576 -0.032581 0.000000
4.034000 0.012272 -0.032583 0.020291 0.000000
4.036000 0.012272 0.018808 0.072695 0.000000
4.038000 0.012272 0.070277 0.087280 0.000000
4.040000 0.012272 0.086726 0.087280 0.000000
4.042000 0.012272 0.086619 -0.021651 0.000000
4.044000 0.012272 -0.018602 -0.054935 0.000000
4.046000 0.012272 -0.053407 -0.006899 0.000000
4.048000 0.012272 -0.009438 0.026902 0.000000
4.050000 0.012272 0.025381 0.026902 0.000000
4.052000 0.012272 0.025398 0.031785 0.000000
4.054000 0.012272 0.031716 -0.019867 0.000000
4.056000 0.012272 -0.017414 -0.027407 0.000000
4.058000 0.012272 -0.027137 -0.004069 0.000000
4.060000 0.012272 -0.005412 -0.004069 0.000000
4.062000 0.012272 -0.005454 0.093058 0.000000
4.064000 0.012272 0.090583 0.061085 0.000000
4.066000 0.012272 0.062998 -0.055416 0.000000
4.068000 0.012272 -0.049510 -0.055416 0.000000
4.070000 0.010738 -0.049544 -0.054145 0.000000
4.072000 0.010738 -0.054219 0.004245 0.000000
4.074000 0.010738 0.001272 0.064053 0.000000
4.076000 0.012272 0.061235 0.076962 0.000000
4.078000 0.012272 0.076497 0.076962 0.000000
4.080000 0.012272 0.076416 -0.022221 0.000000
4.082000 0.012272 -0.019654 -0.034780 0.000000
4.084000 0.012272 -0.034217 -0.004960 0.000000
4.086000 0.012272 -0.006647 -0.004960 0.000000
4.088000 0.012272 -0.006674 0.044600 0.000000
4.090000 0.012272 0.043451 0.002829 0.000000
4.092000 0.010738 0.005067 -0.058186 0.000000
4.094000 0.010738 -0.055246 -0.047061 0.000000
4.096000 0.010738 -0.047823 -0.047061 0.000000
4.098000 0.010738 -0.047832 0.038954 0.000000
4.100000 0.010738 0.036515 0.108288 0.000000
4.102000 0.010738 0.104909 0.078511 0.000000
4.104000 0.010738 0.080362 0.078511 0.000000
4.106000 0.010738 0.080241 -0.035980 0.000000
4.108000 0.010738 -0.032774 -0.045850 0.000000
4.110000 0.010738 -0.045475 -0.018094 0.000000
4.112000 0.010738 -0.019536 0.034634 0.000000
4.114000 0.010738 0.032006 0.034634 0.000000
4.116000 0.010738 0.031986 -0.025626 0.000000
4.118000 0.010738 -0.024109 -0.033131 0.000000
4.120000 0.010738 -0.032933 -0.021541 0.000000
4.122000 0.010738 -0.022366 0.014002 0.000000
4.124000 0.010738 0.012100 0.014002 0.000000
4.126000 0.010738 0.012061 0.083655 0.000000
4.128000 0.010738 0.081943 0.006749 0.000000
4.130000 0.010738 0.010753 -0.064859 0.000000
4.132000 0.010738 -0.061310 -0.064859 0.000000
4.134000 0.010738 -0.061363 -0.028585 0.000000
4.136000 0.010738 -0.029739 0.014641 0.000000
4.138000 0.010738 0.012546 0.071224 0.000000
4.140000 0.010738 0.068504 0.037228 0.000000
4.142000 0.010738 0.039193 0.037228 0.000000
4.144000 0.010738 0.039120 -0.034473 0.000000
4.146000 0.010738 -0.032651 -0.017571 0.000000
4.148000 0.010738 -0.018631 0.010551 0.000000
4.150000 0.010738 0.009125 0.010551 0.000000
4.152000 0.010738 0.009095 0.044235 0.000000
4.154000 0.010738 0.043484 -0.036145 0.000000
4.156000 0.010738 -0.032278 -0.044053 0.000000
4.158000 0.010738 -0.043792 -0.036260 0.000000
4.160000 0.010738 -0.036972 -0.036260 0.000000
4.162000 0.010738 -0.037002 0.051508 0.000000
4.164000 0.010738 0.049154 0.078925 0.000000
4.166000 0.010738 0.077745 0.014311 0.000000
4.168000 0.010738 0.017735 0.014311 0.000000
4.170000 0.009204 0.017650 -0.032037 0.000000
4.172000 0.009204 -0.030845 -0.005995 0.000000
4.174000 0.009204 -0.007469 0.025713 0.000000
4.176000 0.009204 0.024122 0.035907 0.000000
4.178000 0.009204 0.035498 0.035907 0.000000
4.180000 0.009204 0.035437 -0.048498 0.000000
4.182000 0.009204 -0.046276 -0.042187 0.000000
4.184000 0.009204 -0.042653 -0.010954 0.000000
4.186000 0.009204 -0.012798 0.018403 0.000000
4.188000 0.009204 0.016949 0.018403 0.000000
4.190000 0.009204 0.016924 0.065588 0.000000
4.192000 0.009204 0.064341 -0.004316 0.000000
4.194000 0.009204 -0.000897 -0.018945 0.000000
4.196000 0.009204 -0.018151 -0.018945 0.000000
4.198000 0.009204 -0.018257 -0.003334 0.000000
4.200000 0.009204 -0.003813 0.026234 0.000000
4.202000 0.009204 0.024804 0.032187 0.000000
4.204000 0.009204 0.032083 -0.036456 0.000000
4.206000 0.009204 -0.033001 -0.036456 0.000000
4.208000 0.009204 -0.033041 -0.017336 0.000000
4.210000 0.009204 -0.017999 0.012439 0.000000
4.212000 0.009204 0.010754 0.049648 0.000000
4.214000 0.009204 0.047736 0.049648 0.000000
4.216000 0.009204 0.047665 -0.009373 0.000000
4.218000 0.009204 -0.007719 -0.019259 0.000000
4.220000 0.009204 -0.018832 -0.032709 0.000000
4.222000 0.009204 -0.032164 -0.021466 0.000000
4.224000 0.007670 -0.022227 -0.021466 0.000000
4.226000 0.007670 -0.022270 0.012728 0.000000
4.228000 0.007670 0.011704 0.022702 0.000000
4.230000 0.007670 0.022127 0.011696 0.000000
4.232000 0.007670 0.012322 0.011696 0.000000
4.234000 0.007670 0.012221 0.002732 0.000000
4.236000 0.007670 0.002959 0.009882 0.000000
4.238000 0.007670 0.009492 0.012958 0.000000
4.240000 0.007670 0.012729 0.003269 0.000000
4.242000 0.007670 0.003756 0.003269 0.000000
4.244000 0.007670 0.003689 -0.034780 0.000000
4.246000 0.007670 -0.033732 -0.007384 0.000000
4.248000 0.007670 -0.008992 -0.005972 0.000000
4.250000 0.007670 -0.006222 0.021363 0.000000
4.252000 0.007670 0.019838 0.021363 0.000000
4.254000 0.007670 0.019782 0.021215 0.000000
4.256000 0.007670 0.021214 0.010579 0.000000
4.258000 0.007670 0.011233 0.015163 0.000000
4.260000 0.007670 0.014892 0.015163 0.000000
4.262000 0.007670 0.014776 -0.025213 0.000000
4.264000 0.006136 -0.024212 -0.002617 0.000000
4.266000 0.006136 -0.003925 -0.000941 0.000000
4.268000 0.006136 -0.001088 0.000796 0.000000
4.270000 0.006136 0.000800 0.000796 0.000000
4.272000 0.006136 0.000719 -0.020949 0.000000
4.274000 0.006136 -0.020428 -0.022401 0.000000
4.276000 0.006136 -0.022589 -0.009271 0.000000
4.278000 0.006136 -0.010195 -0.009271 0.000000
4.280000 0.006136 -0.010215 0.017532 0.000000
4.282000 0.006136 0.016877 0.015367 0.000000
4.284000 0.006136 0.015533 -0.014116 0.000000
4.286000 0.006136 -0.012747 -0.038555 0.000000
4.288000 0.006136 -0.037654 -0.038555 0.000000
4.290000 0.006136 -0.037699 -0.019604 0.000000
4.292000 0.006136 -0.020267 0.022552 0.000000
4.294000 0.006136 0.020645 0.024724 0.000000
4.296000 0.006136 0.024800 0.024724 0.000000
4.298000 0.006136 0.024717 -0.038625 0.000000
4.300000 0.006136 -0.037160 -0.041633 0.000000
4.302000 0.006136 -0.041894 -0.005857 0.000000
4.304000 0.006136 -0.007874 0.030094 0.000000
4.306000 0.006136 0.028494 0.030094 0.000000
4.308000 0.006136 0.028412 0.007346 0.000000
4.310000 0.006136 0.008034 -0.046745 0.000000
4.312000 0.006136 -0.044363 -0.078396 0.000000
4.314000 0.006136 -0.077205 0.022981 0.000000
4.316000 0.004602 0.017846 0.022981 0.000000
4.318000 0.004602 0.017808 0.066049 0.000000
4.320000 0.004602 0.065049 0.053134 0.000000
4.322000 0.004602 0.054008 -0.022197 0.000000
4.324000 0.004602 -0.018620 -0.022197 0.000000
4.326000 0.004602 -0.018715 -0.048229 0.000000
4.328000 0.004602 -0.047848 0.026865 0.000000
4.330000 0.004602 0.023151 0.075576 0.000000
4.332000 0.004602 0.073607 -0.049139 0.000000
4.334000 0.004602 -0.042822 -0.049139 0.000000
4.336000 0.004602 -0.042885 -0.085417 0.000000
4.338000 0.004602 -0.084687 -0.073831 0.000000
4.340000 0.004602 -0.075133 0.022948 0.000000
4.342000 0.004602 0.017808 0.022948 0.000000
4.344000 0.004602 0.017782 0.123543 0.000000
4.346000 0.004602 0.121361 0.002581 0.000000
4.348000 0.004602 0.008715 -0.071079 0.000000
4.350000 0.004602 -0.067696 -0.014969 0.000000
4.352000 0.004602 -0.018386 -0.014969 0.000000
4.354000 0.004602 -0.018401 0.068583 0.000000
4.356000 0.004602 0.066530 0.135260 0.000000
4.358000 0.004602 0.132835 0.023399 0.000000
4.360000 0.004602 0.029304 0.023399 0.000000
4.362000 0.004602 0.029192 -0.090210 0.000000
4.364000 0.003068 -0.087506 -0.023531 0.000000
4.366000 0.003068 -0.027385 0.087887 0.000000
4.368000 0.003068 0.082272 0.148311 0.000000
4.370000 0.004602 0.145993 0.148311 0.000000
4.372000 0.004602 0.145840 -0.076268 0.000000
4.374000 0.003068 -0.070139 -0.122875 0.000000
4.376000 0.003068 -0.121072 -0.057545 0.000000
4.378000 0.003068 -0.061561 0.123445 0.000000
4.380000 0.003068 0.114961 0.123445 0.000000
4.382000 0.003068 0.114874 0.105876 0.000000
4.384000 0.003068 0.106715 -0.030106 0.000000
4.386000 0.003068 -0.023503 -0.102021 0.000000
4.388000 0.003068 -0.098834 -0.102021 0.000000
4.390000 0.003068 -0.098862 0.013430 0.000000
4.392000 0.003068 0.009943 0.134419 0.000000
4.394000 0.003068 0.128957 0.155127 0.000000
4.396000 0.003068 0.155417 -0.139678 0.000000
4.398000 0.003068 -0.125550 -0.139678 0.000000
4.400000 0.003068 -0.125596 -0.115086 0.000000
4.402000 0.003068 -0.115993 -0.007475 0.000000
4.404000 0.003068 -0.013641 0.104090 0.000000
4.406000 0.003068 0.098651 0.104090 0.000000
4.408000 0.003068 0.098612 0.015877 0.000000
4.410000 0.003068 0.018757 -0.090934 0.000000
4.412000 0.003068 -0.086162 -0.105675 0.000000
4.414000 0.003068 -0.105555 0.079065 0.000000
4.416000 0.003068 0.069724 0.079065 0.000000
4.418000 0.003068 0.069679 0.142400 0.000000
4.420000 0.003068 0.141309 0.079086 0.000000
4.422000 0.003068 0.082716 -0.071044 0.000000
4.424000 0.003068 -0.063856 -0.071044 0.000000
4.426000 0.003068 -0.063907 -0.071452 0.000000
4.428000 0.001534 -0.071746 0.039628 0.000000
4.430000 0.003068 0.033827 0.183092 0.000000
4.432000 0.003068 0.176715 -0.049516 0.000000
4.434000 0.003068 -0.037577 -0.049516 0.000000
4.436000 0.003068 -0.037651 -0.134467 0.000000
4.438000 0.003068 -0.132378 -0.080939 0.000000
4.440000 0.001534 -0.084416 0.009496 0.000000
4.442000 0.001534 0.004201 0.108645 0.000000
4.444000 0.003068 0.104450 0.108645 0.000000
4.446000 0.003068 0.104396 -0.028505 0.000000
4.448000 0.003068 -0.024573 -0.113813 0.000000
4.450000 0.003068 -0.110225 -0.077191 0.000000
4.452000 0.001534 -0.079689 -0.077191 0.000000
4.454000 0.001534 -0.079704 0.071406 0.000000
4.456000 0.003068 0.067364 0.174610 0.000000
4.458000 0.003068 0.170632 0.071679 0.000000
4.460000 0.003068 0.077102 -0.109637 0.000000
4.462000 0.003068 -0.101105 -0.109637 0.000000
4.464000 0.001534 -0.101145 -0.062002 0.000000
4.466000 0.001534 -0.063515 0.033843 0.000000
4.468000 0.003068 0.028828 0.133851 0.000000
4.470000 0.003068 0.129694 0.133851 0.000000
4.472000 0.003068 0.129638 -0.051052 0.000000
4.474000 0.003068 -0.046023 -0.086415 0.000000
4.476000 0.003068 -0.085161 -0.053233 0.000000
4.478000 0.003068 -0.055435 0.060556 0.000000
4.480000 0.003068 0.054866 0.060556 0.000000
4.482000 0.003068 0.054869 0.096641 0.000000
4.484000 0.003068 0.096072 0.003539 0.000000
4.486000 0.003068 0.008378 -0.094912 0.000000
4.488000 0.003068 -0.090267 -0.094912 0.000000
4.490000 0.003068 -0.090288 -0.011731 0.000000
4.492000 0.003068 -0.014198 0.011161 0.000000
4.494000 0.003068 0.010310 0.099062 0.000000
4.496000 0.003068 0.095405 -0.062111 0.000000
4.498000 0.003068 -0.054686 -0.062111 0.000000
4.500000 0.003068 -0.054691 -0.050486 0.000000
4.502000 0.003068 -0.050945 -0.020427 0.000000
4.504000 0.003068 -0.022341 0.002643 0.000000
4.506000 0.003068 0.001562 0.050823 0.000000
4.508000 0.003068 0.049409 0.050823 0.000000
4.510000 0.003068 0.049401 -0.052271 0.000000
4.512000 0.003068 -0.049806 -0.043691 0.000000
4.514000 0.003068 -0.044554 -0.011986 0.000000
4.516000 0.003068 -0.013898 -0.011986 0.000000
4.518000 0.003068 -0.013851 0.027942 0.000000
4.520000 0.003068 0.026983 0.074568 0.000000
4.522000 0.003068 0.072546 0.037448 0.000000
4.524000 0.003068 0.039443 -0.011272 0.000000
4.526000 0.003068 -0.008766 -0.011272 0.000000
4.528000 0.003068 -0.008823 -0.012458 0.000000
4.530000 0.003068 -0.012442 -0.026541 0.000000
4.532000 0.003068 -0.025770 -0.013501 0.000000
4.534000 0.003068 -0.014151 -0.013501 0.000000
4.536000 0.003068 -0.014072 0.013104 0.000000
4.538000 0.003068 0.012376 0.001045 0.000000
4.540000 0.003068 0.001730 0.013930 0.000000
4.542000 0.003068 0.013268 -0.032723 0.000000
4.544000 0.003068 -0.030366 -0.032723 0.000000
4.546000 0.003068 -0.030291 -0.000682 0.000000
4.548000 0.003068 -0.001597 0.021183 0.000000
4.550000 0.003068 0.019942 0.010848 0.000000
4.552000 0.003068 0.011622 0.010848 0.000000
4.554000 0.004602 0.011583 -0.037315 0.000000
4.556000 0.004602 -0.035866 -0.059000 0.000000
4.558000 0.004602 -0.058085 -0.033474 0.000000
4.560000 0.004602 -0.035163 0.064109 0.000000
4.562000 0.003068 0.059142 0.064109 0.000000
4.564000 0.004602 0.059113 0.071166 0.000000
4.566000 0.004602 0.071225 0.009326 0.000000
4.568000 0.004602 0.012814 -0.067179 0.000000
4.570000 0.004602 -0.063367 -0.021700 0.000000
4.572000 0.004602 -0.024421 -0.021700 0.000000
4.574000 0.004602 -0.024373 0.048355 0.000000
4.576000 0.004602 0.046566 0.077788 0.000000
4.578000 0.004602 0.076942 -0.066679 0.000000
4.580000 0.004602 -0.059590 -0.066679 0.000000
4.582000 0.004602 -0.059541 -0.090001 0.000000
4.584000 0.004602 -0.089576 -0.028210 0.000000
4.586000 0.004602 -0.031820 0.054360 0.000000
4.588000 0.004602 0.050327 0.045045 0.000000
4.590000 0.004602 0.046442 0.045045 0.000000
4.592000 0.004602 0.046405 -0.061970 0.000000
4.594000 0.004602 -0.059283 -0.115046 0.000000
4.596000 0.004602 -0.112965 0.014424 0.000000
4.598000 0.004602 0.007486 0.014424 0.000000
4.600000 0.004602 0.007541 0.097443 0.000000
4.602000 0.004602 0.095498 0.100607 0.000000
4.604000 0.004602 0.101481 -0.026435 0.000000
4.606000 0.004602 -0.019993 -0.093173 0.000000
4.608000 0.004602 -0.090477 -0.093173 0.000000
4.610000 0.004602 -0.090400 -0.002601 0.000000
4.612000 0.004602 -0.005247 0.103232 0.000000
4.614000 0.004602 0.098367 0.155510 0.000000
4.616000 0.006136 0.153994 0.155510 0.000000
4.618000 0.006136 0.153875 -0.097934 0.000000
4.620000 0.004602 -0.091332 -0.110465 0.000000
4.622000 0.004602 -0.110238 -0.029323 0.000000
4.624000 0.004602 -0.034062 0.163107 0.000000
4.626000 0.004602 0.154270 0.163107 0.000000
4.628000 0.006136 0.154209 0.068770 0.000000
4.630000 0.006136 0.071712 -0.068654 0.000000
4.632000 0.006136 -0.062094 -0.118084 0.000000
4.634000 0.004602 -0.116005 0.033741 0.000000
4.636000 0.004602 0.025675 0.033741 0.000000
4.638000 0.006136 0.025721 0.137430 0.000000
4.640000 0.006136 0.135067 0.116397 0.000000
4.642000 0.006136 0.118666 -0.143083 0.000000
4.644000 0.006136 -0.130772 -0.143083 0.000000
4.646000 0.006136 -0.130737 -0.089778 0.000000
4.648000 0.006136 -0.091443 0.023754 0.000000
4.650000 0.006136 0.017637 0.153920 0.000000
4.652000 0.006136 0.148050 0.009510 0.000000
4.654000 0.006136 0.017420 0.009510 0.000000
4.656000 0.006136 0.017381 -0.106658 0.000000
4.658000 0.006136 -0.103717 -0.100864 0.000000
4.660000 0.006136 -0.101697 0.084899 0.000000
4.662000 0.006136 0.075339 0.084899 0.000000
4.664000 0.006136 0.075393 0.141247 0.000000
4.666000 0.006136 0.140201 0.050180 0.000000
4.668000 0.006136 0.055767 -0.084334 0.000000
4.670000 0.006136 -0.077884 -0.033603 0.000000
4.672000 0.006136 -0.036596 -0.033603 0.000000
4.674000 0.006136 -0.036561 0.066421 0.000000
4.676000 0.006136 0.063702 0.159345 0.000000
4.678000 0.006136 0.155669 -0.051769 0.000000
4.680000 0.006136 -0.041047 -0.051769 0.000000
4.682000 0.006136 -0.041061 -0.124891 0.000000
4.684000 0.006136 -0.123101 -0.062205 0.000000
4.686000 0.006136 -0.066005 0.017388 0.000000
4.688000 0.006136 0.013129 0.170153 0.000000
4.690000 0.007670 0.164071 0.170153 0.000000
4.692000 0.007670 0.163989 -0.004580 0.000000
4.694000 0.007670 -0.000058 -0.096999 0.000000
4.696000 0.006136 -0.092806 -0.087569 0.000000
4.698000 0.006136 -0.088598 0.076085 0.000000
4.700000 0.006136 0.067796 0.076085 0.000000
4.702000 0.007670 0.067847 0.169218 0.000000
4.704000 0.007670 0.167082 0.023912 0.000000
4.706000 0.007670 0.032165 -0.098760 0.000000
4.708000 0.007670 -0.092856 -0.098760 0.000000
4.710000 0.006136 -0.092846 -0.042074 0.000000
4.712000 0.006136 -0.043774 0.034461 0.000000
4.714000 0.007670 0.030552 0.145678 0.000000
4.716000 0.007670 0.140738 -0.029737 0.000000
4.718000 0.007670 -0.020871 -0.029737 0.000000
4.720000 0.007670 -0.020883 -0.080839 0.000000
4.722000 0.007670 -0.079580 -0.057190 0.000000
4.724000 0.006136 -0.058889 0.108517 0.000000
4.726000 0.007670 0.101200 0.108517 0.000000
4.728000 0.007670 0.101201 0.148712 0.000000
4.730000 0.007670 0.148104 0.003506 0.000000
4.732000 0.007670 0.010731 -0.108915 0.000000
4.734000 0.007670 -0.103521 -0.018408 0.000000
4.736000 0.007670 -0.023511 -0.018408 0.000000
4.738000 0.007670 -0.023466 0.067856 0.000000
4.740000 0.007670 0.065634 0.154280 0.000000
4.742000 0.009204 0.150570 -0.090601 0.000000
4.744000 0.007670 -0.078215 -0.090601 0.000000
4.746000 0.007670 -0.078224 -0.068147 0.000000
4.748000 0.007670 -0.068801 -0.043054 0.000000
4.750000 0.007670 -0.044763 -0.016796 0.000000
4.752000 0.007670 -0.018213 0.087717 0.000000
4.754000 0.007670 0.083181 0.087717 0.000000
4.756000 0.007670 0.083195 -0.024070 0.000000
4.758000 0.007670 -0.021159 -0.054045 0.000000
4.760000 0.007670 -0.052886 0.008729 0.000000
4.762000 0.007670 0.005297 0.067170 0.000000
4.764000 0.007670 0.064890 0.067170 0.000000
4.766000 0.009204 0.064924 0.130417 0.000000
4.768000 0.009204 0.129273 0.001564 0.000000
4.770000 0.009204 0.008115 -0.089407 0.000000
4.772000 0.009204 -0.085245 -0.089407 0.000000
4.774000 0.009204 -0.085231 -0.024412 0.000000
4.776000 0.009204 -0.026395 0.019861 0.000000
4.778000 0.009204 0.017899 0.097867 0.000000
4.780000 0.009204 0.094409 -0.048302 0.000000
4.782000 0.009204 -0.041185 -0.048302 0.000000
4.784000 0.009204 -0.041188 -0.034108 0.000000
4.786000 0.009204 -0.034522 -0.025280 0.000000
4.788000 0.009204 -0.025926 0.038286 0.000000
4.790000 0.009204 0.035466 0.038286 0.000000
4.792000 0.009204 0.035511 0.054036 0.000000
4.794000 0.009204 0.053740 -0.016330 0.000000
4.796000 0.009204 -0.012673 -0.042664 0.000000
4.798000 0.009204 -0.041465 -0.012933 0.000000
4.800000 0.009204 -0.014581 -0.012933 0.000000
4.802000 0.009204 -0.014531 0.034348 0.000000
4.804000 0.009204 0.033250 0.069592 0.000000
4.806000 0.009204 0.068154 -0.056456 0.000000
4.808000 0.009204 -0.050304 -0.056456 0.000000
4.810000 0.009204 -0.050316 -0.044741 0.000000
4.812000 0.009204 -0.045126 -0.006828 0.000000
4.814000 0.009204 -0.008973 0.014053 0.000000
4.816000 0.009204 0.013139 0.047626 0.000000
4.818000 0.009204 0.046028 0.047626 0.000000
4.820000 0.009204 0.046012 -0.003797 0.000000
4.822000 0.009204 -0.002483 -0.007381 0.000000
4.824000 0.009204 -0.007099 0.000999 0.000000
4.826000 0.009204 0.000924 0.025228 0.000000
4.828000 0.009204 0.024109 0.025228 0.000000
4.830000 0.009204 0.024146 0.041846 0.000000
4.832000 0.009204 0.041423 0.000919 0.000000
4.834000 0.009204 0.002918 -0.031605 0.000000
4.836000 0.009204 -0.029694 -0.031605 0.000000
4.838000 0.009204 -0.029695 -0.005104 0.000000
4.840000 0.009204 -0.005825 0.009463 0.000000
4.842000 0.009204 0.008746 -0.006171 0.000000
4.844000 0.009204 -0.005555 -0.001600 0.000000
4.846000 0.009204 -0.001826 -0.001600 0.000000
4.848000 0.009204 -0.001841 -0.004263 0.000000
4.850000 0.009204 -0.004110 0.010772 0.000000
4.852000 0.009204 0.010042 0.004804 0.000000
4.854000 0.009204 0.004952 0.004804 0.000000
4.856000 0.009204 0.004973 0.010167 0.000000
4.858000 0.009204 0.009953 -0.008684 0.000000
4.860000 0.009204 -0.007631 -0.001680 0.000000
4.862000 0.009204 -0.001736 -0.014768 0.000000
4.864000 0.009204 -0.013844 -0.014768 0.000000
4.866000 0.009204 -0.013798 -0.009981 0.000000
4.868000 0.009204 -0.010212 -0.012991 0.000000
4.870000 0.010738 -0.013138 0.023071 0.000000
4.872000 0.010738 0.021367 0.023071 0.000000
4.874000 0.010738 0.021336 0.020745 0.000000
4.876000 0.010738 0.020939 0.002550 0.000000
4.878000 0.010738 0.003600 -0.012086 0.000000
4.880000 0.010738 -0.011489 -0.016617 0.000000
4.882000 0.010738 -0.016742 -0.016617 0.000000
4.884000 0.010738 -0.016727 0.016940 0.000000
4.886000 0.010738 0.016136 0.009214 0.000000
4.888000 0.010738 0.009953 -0.015825 0.000000
4.890000 0.010738 -0.014740 -0.030180 0.000000
4.892000 0.010738 -0.029807 -0.030180 0.000000
4.894000 0.010738 -0.029795 -0.019693 0.000000
4.896000 0.010738 -0.020096 0.007061 0.000000
4.898000 0.010738 0.005926 0.002293 0.000000
4.900000 0.010738 0.002928 0.002293 0.000000
4.902000 0.010738 0.002910 -0.042592 0.000000
4.904000 0.010738 -0.041523 -0.064170 0.000000
4.906000 0.010738 -0.063552 0.006158 0.000000
4.908000 0.010738 0.002382 0.046526 0.000000
4.910000 0.010738 0.044724 0.046526 0.000000
4.912000 0.010738 0.044689 0.040393 0.000000
4.914000 0.010738 0.040760 -0.005937 0.000000
4.916000 0.010738 -0.003636 -0.043901 0.000000
4.918000 0.009204 -0.042482 -0.043901 0.000000
4.920000 0.009204 -0.042457 0.007721 0.000000
4.922000 0.009204 0.006260 0.041490 0.000000
4.924000 0.009204 0.040209 0.000112 0.000000
4.926000 0.009204 0.002453 -0.037874 0.000000
4.928000 0.009204 -0.036261 -0.037874 0.000000
4.930000 0.009204 -0.036289 -0.054445 0.000000
4.932000 0.009204 -0.054261 -0.004092 0.000000
4.934000 0.009204 -0.006918 0.055531 0.000000
4.936000 0.009204 0.053328 0.055531 0.000000
4.938000 0.009204 0.053276 0.019183 0.000000
4.940000 0.009204 0.020168 -0.038595 0.000000
4.942000 0.009204 -0.035973 -0.071070 0.000000
4.944000 0.009204 -0.069915 0.026296 0.000000
4.946000 0.009204 0.021344 0.026296 0.000000
4.948000 0.009204 0.021333 0.056548 0.000000
4.950000 0.009204 0.056016 0.045198 0.000000
4.952000 0.009204 0.046035 -0.070781 0.000000
4.954000 0.009204 -0.065516 -0.053392 0.000000
4.956000 0.009204 -0.054563 -0.053392 0.000000
4.958000 0.009204 -0.054529 0.018702 0.000000
4.960000 0.009204 0.016711 0.077470 0.000000
4.962000 0.009204 0.075198 -0.022226 0.000000
4.964000 0.009204 -0.017163 -0.022226 0.000000
4.966000 0.009204 -0.017223 -0.060014 0.000000
4.968000 0.009204 -0.059222 -0.066234 0.000000
4.970000 0.009204 -0.066525 0.070275 0.000000
4.972000 0.009204 0.063841 0.085311 0.000000
4.974000 0.009204 0.085076 0.085311 0.000000
4.976000 0.009204 0.084983 0.001203 0.000000
4.978000 0.009204 0.003504 -0.043255 0.000000
4.980000 0.009204 -0.041483 -0.008800 0.000000
4.982000 0.009204 -0.011218 -0.008800 0.000000
4.984000 0.009204 -0.011230 0.076429 0.000000
4.986000 0.009204 0.074276 0.110193 0.000000
4.988000 0.009204 0.109339 -0.050034 0.000000
4.990000 0.009204 -0.041992 -0.097122 0.000000
4.992000 0.009204 -0.095026 -0.097122 0.000000
4.994000 0.007670 -0.095034 -0.055779 0.000000
4.996000 0.007670 -0.057287 0.040892 0.000000
4.998000 0.009204 0.036103 0.066352 0.000000
5.000000 0.009204 0.065929 0.066352 0.000000
5.002000 0.009204 0.065830 -0.033186 0.000000
5.004000 0.009204 -0.030713 -0.081856 0.000000
5.006000 0.009204 -0.079994 0.021875 0.000000
5.008000 0.009204 0.016298 0.091451 0.000000
5.010000 0.009204 0.088514 0.091451 0.000000
5.012000 0.009204 0.088448 0.105874 0.000000
5.014000 0.009204 0.106025 -0.011019 0.000000
5.016000 0.009204 -0.005284 -0.093487 0.000000
5.018000 0.007670 -0.089862 -0.003060 0.000000
5.020000 0.007670 -0.007964 -0.003060 0.000000
5.022000 0.007670 -0.007951 0.097133 0.000000
5.024000 0.007670 0.094584 0.037757 0.000000
5.026000 0.007670 0.041405 -0.077511 0.000000
5.028000 0.007670 -0.071932 -0.077511 0.000000
5.030000 0.007670 -0.071997 -0.099473 0.000000
5.032000 0.007670 -0.099237 -0.028215 0.000000
5.034000 0.007670 -0.032354 0.114998 0.000000
5.036000 0.007670 0.108711 0.025551 0.000000
5.038000 0.007670 0.030153 0.025551 0.000000
5.040000 0.007670 0.030072 -0.058967 0.000000
5.042000 0.007670 -0.056941 -0.099767 0.000000
5.044000 0.007670 -0.098470 0.030491 0.000000
5.046000 0.007670 0.023728 0.030491 0.000000
5.048000 0.007670 0.023730 0.143843 0.000000
5.050000 0.007670 0.141344 0.119548 0.000000
5.052000 0.007670 0.121697 -0.119212 0.000000
5.054000 0.007670 -0.107893 -0.108918 0.000000
5.056000 0.007670 -0.109734 -0.108918 0.000000
5.058000 0.006136 -0.109714 -0.005797 0.000000
5.060000 0.006136 -0.008978 0.107462 0.000000
5.062000 0.007670 0.102217 -0.026447 0.000000
5.064000 0.007670 -0.019278 -0.026447 0.000000
5.066000 0.007670 -0.019342 -0.111932 0.000000
5.068000 0.006136 -0.109895 -0.099939 0.000000
5.070000 0.006136 -0.101320 0.093208 0.000000
5.072000 0.006136 0.083469 0.156711 0.000000
5.074000 0.006136 0.154346 0.156711 0.000000
5.076000 0.007670 0.154202 0.041643 0.000000
5.078000 0.007670 0.044930 -0.068303 0.000000
5.080000 0.006136 -0.063266 -0.049583 0.000000
5.082000 0.006136 -0.051203 0.047169 0.000000
5.084000 0.006136 0.042374 0.047169 0.000000
5.086000 0.006136 0.042361 0.163674 0.000000
5.088000 0.006136 0.161306 -0.048901 0.000000
5.090000 0.006136 -0.038364 -0.135790 0.000000
5.092000 0.006136 -0.131592 -0.135790 0.000000
5.094000 0.006136 -0.131625 -0.075814 0.000000
5.096000 0.006136 -0.077962 0.022975 0.000000
5.098000 0.006136 0.017595 0.161963 0.000000
5.100000 0.006136 0.155867 -0.054306 0.000000
5.102000 0.006136 -0.043300 -0.054306 0.000000
5.104000 0.006136 -0.043363 -0.140541 0.000000
5.106000 0.006136 -0.138512 -0.001963 0.000000
5.108000 0.006136 -0.009666 0.076976 0.000000
5.110000 0.006136 0.072993 0.076976 0.000000
5.112000 0.006136 0.072977 0.173141 0.000000
5.114000 0.006136 0.171349 0.081577 0.000000
5.116000 0.006136 0.086589 -0.104064 0.000000
5.118000 0.006136 -0.095189 -0.048876 0.000000
5.120000 0.004602 -0.051895 -0.048876 0.000000
5.122000 0.004602 -0.051920 0.062300 0.000000
5.124000 0.006136 0.059185 0.165851 0.000000
5.126000 0.006136 0.161767 -0.070141 0.000000
5.128000 0.006136 -0.058108 -0.070141 0.000000
5.130000 0.006136 -0.058164 -0.116627 0.000000
5.132000 0.004602 -0.115600 -0.052992 0.000000
5.134000 0.004602 -0.056959 0.117949 0.000000
5.136000 0.006136 0.109500 0.166482 0.000000
5.138000 0.006136 0.164353 0.166482 0.000000
5.140000 0.006136 0.164225 0.004275 0.000000
5.142000 0.006136 0.008987 -0.104100 0.000000
5.144000 0.004602 -0.099088 -0.023706 0.000000
5.146000 0.004602 -0.027978 0.035917 0.000000
5.148000 0.004602 0.033139 0.035917 0.000000
5.150000 0.006136 0.033157 0.127800 0.000000
5.152000 0.006136 0.125878 -0.072676 0.000000
5.154000 0.004602 -0.063191 -0.051305 0.000000
5.156000 0.004602 -0.052524 -0.051305 0.000000
5.158000 0.004602 -0.052593 -0.046583 0.000000
5.160000 0.004602 -0.047059 0.037002 0.000000
5.162000 0.006136 0.032851 0.080735 0.000000
5.164000 0.006136 0.079460 -0.086161 0.000000
5.166000 0.006136 -0.078170 -0.086161 0.000000
5.168000 0.004602 -0.078178 -0.092106 0.000000
5.170000 0.004602 -0.092230 0.000239 0.000000
5.172000 0.004602 -0.004846 0.056930 0.000000
5.174000 0.004602 0.054391 0.056930 0.000000
5.176000 0.006136 0.054413 0.113743 0.000000
5.178000 0.006136 0.112535 0.034651 0.000000
5.180000 0.004602 0.038734 -0.044010 0.000000
5.182000 0.004602 -0.040184 -0.001188 0.000000
