time ax ay az button
0.000000 -0.000000 0.000000 0.000000 0.000000
0.002000 -0.000000 0.000000 0.000000 0.000000
0.004000 -0.000000 0.000000 0.000000 0.000000
0.006000 -0.000000 0.000000 -0.066085 0.000000
0.008000 -0.000000 -0.066085 -0.066085 0.000000
0.010000 -0.000000 -0.066003 -0.062343 0.000000
0.012000 -0.000000 -0.062343 -0.049231 0.000000
0.014000 -0.000000 -0.049232 -0.032523 0.000000
0.016000 -0.000000 -0.032524 -0.066040 0.000000
0.018000 -0.000000 -0.066038 -0.066040 0.000000
0.020000 -0.000000 -0.065989 -0.089986 0.000000
0.022000 -0.000000 -0.089986 -0.080817 0.000000
0.024000 -0.000000 -0.080818 -0.072146 0.000000
0.026000 -0.000000 -0.072147 -0.083001 0.000000
0.028000 -0.000000 -0.083000 -0.083001 0.000000
0.030000 0.001534 -0.082883 -0.076511 0.000000
0.032000 0.001534 -0.076512 -0.051541 0.000000
0.034000 0.001534 -0.051542 -0.054539 0.000000
0.036000 0.001534 -0.054539 -0.054539 0.000000
0.038000 0.001534 -0.054455 -0.083922 0.000000
0.040000 0.001534 -0.083922 -0.089205 0.000000
0.042000 0.001534 -0.089205 -0.095819 0.000000
0.044000 0.001534 -0.095819 -0.096419 0.000000
0.046000 0.001534 -0.096420 -0.096419 0.000000
0.048000 0.001534 -0.096237 -0.088405 0.000000
0.050000 0.001534 -0.088405 -0.069797 0.000000
0.052000 0.001534 -0.069799 -0.075825 0.000000
0.054000 0.001534 -0.075825 -0.075825 0.000000
0.056000 0.001534 -0.075668 -0.056869 0.000000
0.058000 0.001534 -0.056870 -0.048439 0.000000
0.060000 0.001534 -0.048440 -0.066989 0.000000
0.062000 0.001534 -0.066988 -0.097784 0.000000
0.064000 0.001534 -0.097783 -0.097784 0.000000
0.066000 0.001534 -0.097629 -0.078254 0.000000
0.068000 0.001534 -0.078255 -0.069913 0.000000
0.070000 0.001534 -0.069914 -0.081621 0.000000
0.072000 0.001534 -0.081621 -0.066813 0.000000
0.074000 0.001534 -0.066814 -0.066813 0.000000
0.076000 0.001534 -0.066705 -0.061003 0.000000
0.078000 0.001534 -0.061004 -0.067404 0.000000
0.080000 0.001534 -0.067404 -0.092333 0.000000
0.082000 0.001534 -0.092332 -0.092333 0.000000
0.084000 0.001534 -0.092220 -0.093244 0.000000
0.086000 0.001534 -0.093244 -0.098805 0.000000
0.088000 0.001534 -0.098805 -0.100290 0.000000
0.090000 0.001534 -0.100290 -0.096937 0.000000
0.092000 0.001534 -0.096937 -0.096937 0.000000
0.094000 0.001534 -0.096797 -0.082670 0.000000
0.096000 0.001534 -0.082671 -0.069205 0.000000
0.098000 0.001534 -0.069206 -0.062929 0.000000
0.100000 0.001534 -0.062930 -0.062929 0.000000
0.102000 0.001534 -0.062837 -0.056663 0.000000
0.104000 0.001534 -0.056664 -0.051076 0.000000
0.106000 0.001534 -0.051077 -0.057696 0.000000
0.108000 0.001534 -0.057696 -0.059435 0.000000
0.110000 0.001534 -0.059435 -0.059435 0.000000
0.112000 0.001534 -0.059374 -0.064630 0.000000
0.114000 0.001534 -0.064630 -0.052201 0.000000
0.116000 0.001534 -0.052202 -0.046821 0.000000
0.118000 0.001534 -0.046821 -0.037498 0.000000
0.120000 0.001534 -0.037499 -0.037498 0.000000
0.122000 0.001534 -0.037471 -0.049432 0.000000
0.124000 0.001534 -0.049431 -0.043377 0.000000
0.126000 0.001534 -0.043377 -0.066480 0.000000
0.128000 0.001534 -0.066479 -0.066480 0.000000
0.130000 0.001534 -0.066433 -0.090511 0.000000
0.132000 0.001534 -0.090511 -0.093311 0.000000
0.134000 0.001534 -0.093311 -0.100024 0.000000
0.136000 -0.000000 -0.100024 -0.094342 0.000000
0.138000 -0.000000 -0.094342 -0.094342 0.000000
0.140000 -0.000000 -0.094211 -0.095432 0.000000
0.142000 -0.000000 -0.095432 -0.083710 0.000000
0.144000 -0.000000 -0.083711 -0.077739 0.000000
0.146000 -0.000000 -0.077740 -0.077739 0.000000
0.148000 -0.000000 -0.077633 -0.070052 0.000000
0.150000 -0.000000 -0.070052 -0.088281 0.000000
0.152000 -0.000000 -0.088281 -0.069057 0.000000
0.154000 -0.000000 -0.069059 -0.092108 0.000000
0.156000 -0.000000 -0.092107 -0.092108 0.000000
0.158000 -0.000000 -0.092010 -0.112903 0.000000
0.160000 -0.000000 -0.112902 -0.090159 0.000000
0.162000 -0.000000 -0.090161 -0.090739 0.000000
0.164000 -0.000000 -0.090739 -0.093731 0.000000
0.166000 -0.000000 -0.093732 -0.093731 0.000000
0.168000 -0.000000 -0.093620 -0.080113 0.000000
0.170000 -0.000000 -0.080114 -0.076217 0.000000
0.172000 -0.000000 -0.076217 -0.057974 0.000000
0.174000 -0.000000 -0.057975 -0.057974 0.000000
0.176000 -0.000000 -0.057937 -0.081059 0.000000
0.178000 -0.000000 -0.081058 -0.076725 0.000000
0.180000 -0.000000 -0.076726 -0.072499 0.000000
0.182000 -0.000000 -0.072500 -0.119134 0.000000
0.184000 -0.001534 -0.119132 -0.119134 0.000000
0.186000 -0.001534 -0.119014 -0.143251 0.000000
0.188000 -0.001534 -0.143251 -0.120981 0.000000
0.190000 -0.001534 -0.120983 -0.111872 0.000000
0.192000 -0.001534 -0.111873 -0.111872 0.000000
0.194000 -0.001534 -0.111700 -0.078741 0.000000
0.196000 -0.001534 -0.078742 -0.056097 0.000000
0.198000 -0.001534 -0.056098 -0.041148 0.000000
0.200000 -0.001534 -0.041149 -0.040604 0.000000
0.202000 -0.001534 -0.040604 -0.040604 0.000000
0.204000 -0.001534 -0.040585 -0.055475 0.000000
0.206000 -0.001534 -0.055475 -0.060854 0.000000
0.208000 -0.001534 -0.060855 -0.095289 0.000000
0.210000 -0.001534 -0.095287 -0.095289 0.000000
0.212000 -0.001534 -0.095194 -0.123416 0.000000
0.214000 -0.001534 -0.123415 -0.080128 0.000000
0.216000 -0.001534 -0.080131 -0.065186 0.000000
0.218000 -0.001534 -0.065187 0.015471 0.000000
0.220000 -0.001534 0.015467 0.015471 0.000000
0.222000 -0.001534 0.015446 0.003739 0.000000
0.224000 -0.001534 0.003739 -0.019117 0.000000
0.226000 -0.001534 -0.019116 -0.049399 0.000000
0.228000 -0.001534 -0.049398 -0.189383 0.000000
0.230000 -0.001534 -0.189375 -0.189383 0.000000
0.232000 -0.001534 -0.189168 -0.179481 0.000000
0.234000 -0.001534 -0.179482 -0.118181 0.000000
0.236000 -0.001534 -0.118186 -0.064664 0.000000
0.238000 -0.001534 -0.064667 -0.064664 0.000000
0.240000 -0.001534 -0.064523 0.002810 0.000000
0.242000 -0.001534 0.002808 0.040302 0.000000
0.244000 -0.001534 0.040300 -0.004278 0.000000
0.246000 -0.001534 -0.004276 -0.148641 0.000000
0.248000 -0.003068 -0.148633 -0.148641 0.000000
0.250000 -0.003068 -0.148490 -0.169342 0.000000
0.252000 -0.003068 -0.169342 -0.156059 0.000000
0.254000 -0.003068 -0.156060 -0.090076 0.000000
0.256000 -0.003068 -0.090081 -0.090076 0.000000
0.258000 -0.003068 -0.089920 -0.041604 0.000000
0.260000 -0.003068 -0.041606 -0.005303 0.000000
0.262000 -0.003068 -0.005305 0.007478 0.000000
0.264000 -0.003068 0.007477 -0.036031 0.000000
0.266000 -0.003068 -0.036028 -0.036031 0.000000
0.268000 -0.003068 -0.036041 -0.077586 0.000000
0.270000 -0.003068 -0.077585 -0.088727 0.000000
0.272000 -0.003068 -0.088727 -0.119896 0.000000
0.274000 -0.003068 -0.119894 -0.106095 0.000000
0.276000 -0.003068 -0.106096 -0.106095 0.000000
0.278000 -0.003068 -0.105980 -0.074656 0.000000
0.280000 -0.003068 -0.074657 -0.080842 0.000000
0.282000 -0.003068 -0.080842 -0.050031 0.000000
0.284000 -0.004602 -0.050032 -0.050031 0.000000
0.286000 -0.004602 -0.049979 -0.035492 0.000000
0.288000 -0.004602 -0.035492 -0.036689 0.000000
0.290000 -0.004602 -0.036689 -0.054030 0.000000
0.292000 -0.004602 -0.054030 -0.103004 0.000000
0.294000 -0.004602 -0.103002 -0.103004 0.000000
0.296000 -0.004602 -0.102908 -0.109889 0.000000
0.298000 -0.004602 -0.109890 -0.087448 0.000000
0.300000 -0.004602 -0.087450 -0.037332 0.000000
0.302000 -0.004602 -0.037335 -0.037332 0.000000
0.304000 -0.004602 -0.037254 -0.037140 0.000000
0.306000 -0.004602 -0.037140 -0.068151 0.000000
0.308000 -0.004602 -0.068149 -0.084247 0.000000
0.310000 -0.004602 -0.084246 -0.064752 0.000000
0.312000 -0.004602 -0.064754 -0.064752 0.000000
0.314000 -0.004602 -0.064686 0.008036 0.000000
0.316000 -0.004602 0.008034 0.034363 0.000000
0.318000 -0.004602 0.034361 -0.062320 0.000000
0.320000 -0.004602 -0.062314 -0.062320 0.000000
0.322000 -0.004602 -0.062252 -0.140004 0.000000
0.324000 -0.004602 -0.140002 -0.193334 0.000000
0.326000 -0.004602 -0.193331 -0.178185 0.000000
0.328000 -0.004602 -0.178187 0.008381 0.000000
0.330000 -0.004602 0.008370 0.008381 0.000000
0.332000 -0.004602 0.008395 0.057531 0.000000
0.334000 -0.004602 0.057530 0.015608 0.000000
0.336000 -0.004602 0.015611 -0.163102 0.000000
0.338000 -0.004602 -0.163092 -0.191018 0.000000
0.340000 -0.004602 -0.191017 -0.191018 0.000000
0.342000 -0.004602 -0.190723 -0.163593 0.000000
0.344000 -0.004602 -0.163595 -0.107665 0.000000
0.346000 -0.004602 -0.107669 -0.052919 0.000000
0.348000 -0.004602 -0.052922 -0.052919 0.000000
0.350000 -0.004602 -0.052796 -0.086306 0.000000
0.352000 -0.004602 -0.086305 -0.129670 0.000000
0.354000 -0.004602 -0.129668 -0.076705 0.000000
0.356000 -0.004602 -0.076709 -0.006947 0.000000
0.358000 -0.004602 -0.006951 -0.006947 0.000000
0.360000 -0.004602 -0.006844 0.027470 0.000000
0.362000 -0.004602 0.027469 -0.022092 0.000000
0.364000 -0.004602 -0.022088 -0.218256 0.000000
0.366000 -0.004602 -0.218245 -0.218256 0.000000
0.368000 -0.004602 -0.217930 -0.148843 0.000000
0.370000 -0.004602 -0.148845 -0.092665 0.000000
0.372000 -0.004602 -0.092669 0.004490 0.000000
0.374000 -0.004602 0.004484 0.023062 0.000000
0.376000 -0.004602 0.023061 0.023062 0.000000
0.378000 -0.004602 0.023123 -0.056300 0.000000
0.380000 -0.004602 -0.056298 -0.105794 0.000000
0.382000 -0.004602 -0.105791 -0.073967 0.000000
0.384000 -0.004602 -0.073969 -0.102848 0.000000
0.386000 -0.004602 -0.102847 -0.102848 0.000000
0.388000 -0.004602 -0.102652 -0.081366 0.000000
0.390000 -0.004602 -0.081367 -0.065155 0.000000
0.392000 -0.003068 -0.065156 -0.057005 0.000000
0.394000 -0.003068 -0.057006 -0.057005 0.000000
0.396000 -0.004602 -0.056806 -0.005072 0.000000
0.398000 -0.004602 -0.005073 -0.000319 0.000000
0.400000 -0.003068 -0.000319 -0.116450 0.000000
0.402000 -0.003068 -0.116444 -0.107322 0.000000
0.404000 -0.003068 -0.107323 -0.107322 0.000000
0.406000 -0.003068 -0.107019 -0.065378 0.000000
0.408000 -0.003068 -0.065380 0.001935 0.000000
0.410000 -0.003068 0.001931 0.042401 0.000000
0.412000 -0.003068 0.042401 0.042401 0.000000
0.414000 -0.001534 0.042468 -0.094091 0.000000
0.416000 -0.001534 -0.094087 -0.183546 0.000000
0.418000 -0.001534 -0.183541 -0.158514 0.000000
0.420000 -0.001534 -0.158516 0.031850 0.000000
0.422000 -0.001534 0.031839 0.031850 0.000000
0.424000 -0.001534 0.031960 0.146639 0.000000
0.426000 -0.000000 0.146636 0.064293 0.000000
0.428000 -0.000000 0.064299 -0.200972 0.000000
0.430000 -0.000000 -0.200957 -0.200972 0.000000
0.432000 -0.000000 -0.200500 -0.156938 0.000000
0.434000 -0.000000 -0.156940 -0.094901 0.000000
0.436000 -0.000000 -0.094905 -0.021503 0.000000
0.438000 -0.000000 -0.021507 -0.062045 0.000000
0.440000 0.001534 -0.062042 -0.062045 0.000000
0.442000 0.001534 -0.061797 -0.147216 0.000000
0.444000 0.001534 -0.147214 -0.105596 0.000000
0.446000 0.001534 -0.105599 -0.007835 0.000000
0.448000 0.001534 -0.007841 0.029954 0.000000
0.450000 0.001534 0.029952 0.029954 0.000000
0.452000 0.001534 0.030181 -0.035092 0.000000
0.454000 0.001534 -0.035090 -0.171703 0.000000
0.456000 0.001534 -0.171695 -0.109899 0.000000
0.458000 0.001534 -0.109903 -0.109899 0.000000
0.460000 0.001534 -0.109540 -0.051457 0.000000
0.462000 0.003068 -0.051459 0.014590 0.000000
0.464000 0.003068 0.014586 -0.006182 0.000000
0.466000 0.004602 -0.006181 -0.058438 0.000000
0.468000 0.004602 -0.058435 -0.058438 0.000000
0.470000 0.004602 -0.058073 -0.032925 0.000000
0.472000 0.004602 -0.032926 -0.038317 0.000000
0.474000 0.004602 -0.038316 -0.058071 0.000000
0.476000 0.006136 -0.058070 -0.058071 0.000000
0.478000 0.006136 -0.057765 -0.087667 0.000000
0.480000 0.006136 -0.087666 -0.128641 0.000000
0.482000 0.006136 -0.128639 -0.034862 0.000000
0.484000 0.006136 -0.034868 0.004488 0.000000
0.486000 0.007670 0.004487 0.004488 0.000000
0.488000 0.007670 0.004769 -0.044424 0.000000
0.490000 0.007670 -0.044423 -0.078957 0.000000
0.492000 0.007670 -0.078954 -0.067111 0.000000
0.494000 0.009204 -0.067112 -0.067111 0.000000
0.496000 0.009204 -0.066693 -0.018746 0.000000
0.498000 0.009204 -0.018747 -0.019592 0.000000
0.500000 0.009204 -0.019592 -0.036967 0.000000
0.502000 0.010738 -0.036965 -0.144829 0.000000
0.504000 0.010738 -0.144823 -0.144829 0.000000
0.506000 0.010738 -0.144275 -0.141306 0.000000
0.508000 0.010738 -0.141306 -0.031994 0.000000
0.510000 0.010738 -0.032000 0.082610 0.000000
0.512000 0.012272 0.082603 -0.008473 0.000000
0.514000 0.012272 -0.008467 -0.008473 0.000000
0.516000 0.013806 -0.008119 -0.111994 0.000000
0.518000 0.013806 -0.111991 -0.167563 0.000000
0.520000 0.013806 -0.167560 -0.039139 0.000000
0.522000 0.013806 -0.039147 -0.039139 0.000000
0.524000 0.013806 -0.038740 0.070529 0.000000
0.526000 0.015340 0.070526 0.026172 0.000000
0.528000 0.015340 0.026176 -0.133914 0.000000
0.530000 0.015340 -0.133904 -0.135723 0.000000
0.532000 0.015340 -0.135723 -0.135723 0.000000
0.534000 0.015340 -0.135136 -0.071474 0.000000
0.536000 0.016874 -0.071476 0.006283 0.000000
0.538000 0.016874 0.006279 -0.006958 0.000000
0.540000 0.018408 -0.006956 -0.006958 0.000000
0.542000 0.018408 -0.006625 -0.089765 0.000000
0.544000 0.018408 -0.089763 -0.150444 0.000000
0.546000 0.018408 -0.150440 -0.067730 0.000000
0.548000 0.018408 -0.067735 0.031202 0.000000
0.550000 0.018408 0.031196 0.031202 0.000000
0.552000 0.019942 0.031610 0.092328 0.000000
0.554000 0.019942 0.092327 -0.002714 0.000000
0.556000 0.021476 -0.002708 -0.083618 0.000000
0.558000 0.021476 -0.083613 -0.065491 0.000000
0.560000 0.021476 -0.065493 -0.065491 0.000000
0.562000 0.021476 -0.065056 0.036328 0.000000
0.564000 0.023010 0.036325 0.115290 0.000000
0.566000 0.023010 0.115287 -0.043381 0.000000
0.568000 0.024544 -0.043370 -0.043381 0.000000
0.570000 0.024544 -0.042877 -0.117353 0.000000
0.572000 0.024544 -0.117350 -0.114811 0.000000
0.574000 0.024544 -0.114811 0.053217 0.000000
0.576000 0.026078 0.053207 0.151100 0.000000
0.578000 0.026078 0.151095 0.151100 0.000000
0.580000 0.027612 0.151281 0.132730 0.000000
0.582000 0.027612 0.132732 -0.001081 0.000000
0.584000 0.027612 -0.001073 -0.106496 0.000000
0.586000 0.027612 -0.106490 -0.106496 0.000000
0.588000 0.027612 -0.105956 -0.091203 0.000000
0.590000 0.029146 -0.091204 -0.002872 0.000000
0.592000 0.029146 -0.002877 0.016810 0.000000
0.594000 0.030680 0.016809 -0.046855 0.000000
0.596000 0.030680 -0.046851 -0.046855 0.000000
0.598000 0.030680 -0.046333 -0.085183 0.000000
0.600000 0.030680 -0.085181 -0.080651 0.000000
0.602000 0.030680 -0.080652 0.091158 0.000000
0.604000 0.032214 0.091148 0.091158 0.000000
0.606000 0.032214 0.091478 0.146211 0.000000
0.608000 0.033748 0.146210 -0.037950 0.000000
0.610000 0.033748 -0.037938 -0.119528 0.000000
0.612000 0.033748 -0.119523 -0.100598 0.000000
0.614000 0.033748 -0.100599 -0.100598 0.000000
0.616000 0.035282 -0.100065 -0.035676 0.000000
0.618000 0.035282 -0.035678 0.097718 0.000000
0.620000 0.036816 0.097711 0.047701 0.000000
0.622000 0.036816 0.047706 -0.042667 0.000000
0.624000 0.036816 -0.042661 -0.042667 0.000000
0.626000 0.036816 -0.042174 -0.115741 0.000000
0.628000 0.036816 -0.115739 -0.111081 0.000000
0.630000 0.038350 -0.111081 0.057766 0.000000
0.632000 0.038350 0.057756 0.057766 0.000000
0.634000 0.039884 0.058062 0.114902 0.000000
0.636000 0.039884 0.114901 -0.001254 0.000000
0.638000 0.039884 -0.001247 -0.117400 0.000000
0.640000 0.039884 -0.117393 -0.104794 0.000000
0.642000 0.039884 -0.104795 -0.104794 0.000000
0.644000 0.041417 -0.104233 -0.026053 0.000000
0.646000 0.041417 -0.026055 0.098440 0.000000
0.648000 0.042951 0.098434 0.043451 0.000000
0.650000 0.042951 0.043456 0.043451 0.000000
0.652000 0.042951 0.043765 -0.048013 0.000000
0.654000 0.042951 -0.048010 -0.097420 0.000000
0.656000 0.042951 -0.097417 -0.035512 0.000000
0.658000 0.042951 -0.035516 0.050946 0.000000
0.660000 0.044485 0.050942 0.050946 0.000000
0.662000 0.044485 0.051308 0.119649 0.000000
0.664000 0.046019 0.119648 0.041634 0.000000
0.666000 0.046019 0.041639 -0.058540 0.000000
0.668000 0.046019 -0.058534 -0.051350 0.000000
0.670000 0.046019 -0.051350 -0.051350 0.000000
0.672000 0.047553 -0.050926 0.033016 0.000000
0.674000 0.047553 0.033014 0.070054 0.000000
0.676000 0.047553 0.070054 -0.002926 0.000000
0.678000 0.049087 -0.002921 -0.002926 0.000000
0.680000 0.049087 -0.002547 -0.048380 0.000000
0.682000 0.049087 -0.048379 -0.067377 0.000000
0.684000 0.049087 -0.067376 -0.004936 0.000000
0.686000 0.049087 -0.004940 0.078757 0.000000
0.688000 0.050621 0.078753 0.078757 0.000000
0.690000 0.050621 0.079038 0.065533 0.000000
0.692000 0.050621 0.065535 -0.034270 0.000000
0.694000 0.050621 -0.034264 -0.028863 0.000000
0.696000 0.050621 -0.028864 -0.028863 0.000000
0.698000 0.052155 -0.028510 -0.009833 0.000000
0.700000 0.052155 -0.009833 0.001331 0.000000
0.702000 0.052155 0.001331 -0.072733 0.000000
0.704000 0.053689 -0.072727 -0.076155 0.000000
0.706000 0.053689 -0.076155 -0.076155 0.000000
0.708000 0.053689 -0.075642 -0.060375 0.000000
0.710000 0.053689 -0.060376 -0.010095 0.000000
0.712000 0.053689 -0.010098 0.158920 0.000000
0.714000 0.055223 0.158910 0.158920 0.000000
0.716000 0.055223 0.159011 0.111702 0.000000
0.718000 0.055223 0.111704 -0.046278 0.000000
0.720000 0.055223 -0.046268 -0.080630 0.000000
0.722000 0.055223 -0.080628 -0.025592 0.000000
0.724000 0.055223 -0.025595 -0.025592 0.000000
0.726000 0.056757 -0.025217 0.056314 0.000000
0.728000 0.056757 0.056312 0.136226 0.000000
0.730000 0.056757 0.136222 -0.034912 0.000000
0.732000 0.056757 -0.034901 -0.069544 0.000000
0.734000 0.056757 -0.069542 -0.069544 0.000000
0.736000 0.056757 -0.069166 -0.062715 0.000000
0.738000 0.058291 -0.062715 0.077382 0.000000
0.740000 0.058291 0.077374 0.149049 0.000000
0.742000 0.058291 0.149047 0.149049 0.000000
0.744000 0.058291 0.149123 0.080871 0.000000
0.746000 0.058291 0.080874 -0.071410 0.000000
0.748000 0.058291 -0.071401 -0.072520 0.000000
0.750000 0.058291 -0.072520 -0.023291 0.000000
0.752000 0.059825 -0.023294 -0.023291 0.000000
0.754000 0.059825 -0.022945 0.065732 0.000000
0.756000 0.059825 0.065729 0.158177 0.000000
0.758000 0.059825 0.158173 0.015625 0.000000
0.760000 0.059825 0.015634 0.015625 0.000000
0.762000 0.059825 0.015838 -0.051393 0.000000
0.764000 0.059825 -0.051391 -0.045182 0.000000
0.766000 0.061359 -0.045183 0.020689 0.000000
0.768000 0.061359 0.020684 0.045712 0.000000
0.770000 0.061359 0.045711 0.045712 0.000000
0.772000 0.062893 0.045877 0.020511 0.000000
0.774000 0.062893 0.020512 0.002743 0.000000
0.776000 0.062893 0.002745 0.005706 0.000000
0.778000 0.062893 0.005706 0.038259 0.000000
0.780000 0.062893 0.038258 0.038259 0.000000
0.782000 0.062893 0.038471 0.082309 0.000000
0.784000 0.062893 0.082308 -0.053811 0.000000
0.786000 0.062893 -0.053802 -0.064388 0.000000
0.788000 0.062893 -0.064387 -0.064388 0.000000
0.790000 0.062893 -0.064162 -0.057393 0.000000
0.792000 0.064427 -0.057393 -0.000974 0.000000
0.794000 0.064427 -0.000978 0.090908 0.000000
0.796000 0.064427 0.090903 0.007187 0.000000
0.798000 0.064427 0.007192 0.007187 0.000000
0.800000 0.064427 0.007414 -0.082336 0.000000
0.802000 0.064427 -0.082333 -0.068986 0.000000
0.804000 0.064427 -0.068987 -0.001645 0.000000
0.806000 0.064427 -0.001649 -0.001645 0.000000
0.808000 0.064427 -0.001473 0.077475 0.000000
0.810000 0.065961 0.077473 0.147895 0.000000
0.812000 0.065961 0.147893 -0.051277 0.000000
0.814000 0.064427 -0.051265 -0.105979 0.000000
0.816000 0.064427 -0.105976 -0.105979 0.000000
0.818000 0.064427 -0.105646 -0.089593 0.000000
0.820000 0.064427 -0.089594 0.049092 0.000000
0.822000 0.065961 0.049083 0.128014 0.000000
0.824000 0.065961 0.128011 0.128014 0.000000
0.826000 0.065961 0.127982 0.116378 0.000000
0.828000 0.065961 0.116380 0.030447 0.000000
0.830000 0.065961 0.030452 -0.044813 0.000000
0.832000 0.065961 -0.044809 -0.037376 0.000000
0.834000 0.065961 -0.037377 -0.037376 0.000000
0.836000 0.065961 -0.037182 -0.005764 0.000000
0.838000 0.065961 -0.005765 0.009099 0.000000
0.840000 0.065961 0.009099 -0.015009 0.000000
0.842000 0.065961 -0.015007 -0.019413 0.000000
0.844000 0.065961 -0.019413 -0.019413 0.000000
0.846000 0.065961 -0.019272 0.011145 0.000000
0.848000 0.065961 0.011144 0.074314 0.000000
0.850000 0.065961 0.074310 0.056063 0.000000
0.852000 0.065961 0.056065 0.056063 0.000000
0.854000 0.065961 0.056063 -0.023617 0.000000
0.856000 0.065961 -0.023614 -0.056032 0.000000
0.858000 0.065961 -0.056030 -0.019355 0.000000
0.860000 0.065961 -0.019357 0.040018 0.000000
0.862000 0.065961 0.040015 0.040018 0.000000
0.864000 0.065961 0.040127 0.113655 0.000000
0.866000 0.065961 0.113653 0.039463 0.000000
0.868000 0.065961 0.039468 -0.014116 0.000000
0.870000 0.065961 -0.014112 -0.014116 0.000000
0.872000 0.065961 -0.014060 -0.050166 0.000000
0.874000 0.065961 -0.050165 -0.013420 0.000000
0.876000 0.065961 -0.013423 0.102239 0.000000
0.878000 0.065961 0.102233 0.109115 0.000000
0.880000 0.065961 0.109116 0.109115 0.000000
0.882000 0.065961 0.109066 0.039008 0.000000
0.884000 0.065961 0.039010 -0.042747 0.000000
0.886000 0.065961 -0.042743 -0.038397 0.000000
0.888000 0.065961 -0.038398 0.001179 0.000000
0.890000 0.065961 0.001177 0.001179 0.000000
0.892000 0.065961 0.001208 0.074554 0.000000
0.894000 0.065961 0.074552 0.043614 0.000000
0.896000 0.065961 0.043616 0.003029 0.000000
0.898000 0.065961 0.003031 0.003029 0.000000
0.900000 0.065961 0.003084 -0.039337 0.000000
0.902000 0.065961 -0.039336 -0.014523 0.000000
0.904000 0.065961 -0.014525 -0.003508 0.000000
0.906000 0.065961 -0.003509 0.046079 0.000000
0.908000 0.065961 0.046076 0.046079 0.000000
0.910000 0.065961 0.046009 0.013504 0.000000
0.912000 0.065961 0.013505 -0.015500 0.000000
0.914000 0.065961 -0.015498 -0.021277 0.000000
0.916000 0.064427 -0.021277 -0.021277 0.000000
0.918000 0.064427 -0.021162 0.011559 0.000000
0.920000 0.064427 0.011558 0.046836 0.000000
0.922000 0.064427 0.046834 0.036946 0.000000
0.924000 0.064427 0.036947 -0.020846 0.000000
0.926000 0.064427 -0.020842 -0.020846 0.000000
0.928000 0.064427 -0.020902 -0.036721 0.000000
0.930000 0.064427 -0.036721 -0.024057 0.000000
0.932000 0.064427 -0.024058 0.026594 0.000000
0.934000 0.064427 0.026591 0.026594 0.000000
0.936000 0.064427 0.026648 0.058189 0.000000
0.938000 0.064427 0.058188 0.069041 0.000000
0.940000 0.064427 0.069041 -0.010706 0.000000
0.942000 0.064427 -0.010701 -0.053130 0.000000
0.944000 0.064427 -0.053127 -0.053130 0.000000
0.946000 0.064427 -0.053152 -0.036488 0.000000
0.948000 0.062893 -0.036489 0.020840 0.000000
0.950000 0.062893 0.020837 0.031401 0.000000
0.952000 0.062893 0.031400 0.014000 0.000000
0.954000 0.062893 0.014001 0.014000 0.000000
0.956000 0.062893 0.013987 -0.008748 0.000000
0.958000 0.062893 -0.008747 -0.024756 0.000000
0.960000 0.062893 -0.024756 0.000278 0.000000
0.962000 0.062893 0.000276 0.000278 0.000000
0.964000 0.062893 0.000241 0.036718 0.000000
0.966000 0.062893 0.036717 0.057558 0.000000
0.968000 0.061359 0.057557 0.022058 0.000000
0.970000 0.061359 0.022060 -0.013322 0.000000
0.972000 0.061359 -0.013320 -0.013322 0.000000
0.974000 0.061359 -0.013344 -0.049734 0.000000
0.976000 0.061359 -0.049733 0.001146 0.000000
0.978000 0.061359 0.001143 0.039866 0.000000
0.980000 0.061359 0.039864 0.039866 0.000000
0.982000 0.061359 0.039775 0.069721 0.000000
0.984000 0.061359 0.069720 0.072040 0.000000
0.986000 0.061359 0.072041 -0.002474 0.000000
0.988000 0.061359 -0.002469 -0.041539 0.000000
0.990000 0.059825 -0.041537 -0.041539 0.000000
0.992000 0.059825 -0.041510 -0.033625 0.000000
0.994000 0.059825 -0.033626 0.024620 0.000000
0.996000 0.059825 0.024616 0.015039 0.000000
0.998000 0.059825 0.015039 0.008625 0.000000
1.000000 0.059825 0.008626 0.008625 0.000000
1.002000 0.059825 0.008548 0.000336 0.000000
1.004000 0.059825 0.000336 -0.021744 0.000000
1.006000 0.059825 -0.021743 0.002298 0.000000
1.008000 0.059825 0.002296 0.002298 0.000000
1.010000 0.058291 0.002309 0.022888 0.000000
1.012000 0.058291 0.022888 0.042644 0.000000
1.014000 0.058291 0.042643 -0.000000 0.000000
1.016000 0.058291 0.000003 -0.024661 0.000000
1.018000 0.058291 -0.024660 -0.024661 0.000000
1.020000 0.058291 -0.024687 -0.041615 0.000000
1.022000 0.058291 -0.041615 0.019396 0.000000
1.024000 0.058291 0.019392 0.053042 0.000000
1.026000 0.056757 0.053040 0.053042 0.000000
1.028000 0.056757 0.052950 0.080012 0.000000
1.030000 0.056757 0.080012 0.032282 0.000000
1.032000 0.056757 0.032285 -0.015266 0.000000
1.034000 0.056757 -0.015264 -0.029127 0.000000
1.036000 0.056757 -0.029127 -0.029127 0.000000
1.038000 0.056757 -0.029134 -0.018053 0.000000
1.040000 0.056757 -0.018053 0.049257 0.000000
1.042000 0.056757 0.049253 0.068954 0.000000
1.044000 0.056757 0.068954 0.068954 0.000000
1.046000 0.056757 0.068775 0.045064 0.000000
1.048000 0.056757 0.045065 -0.026096 0.000000
1.050000 0.056757 -0.026092 -0.032330 0.000000
1.052000 0.055223 -0.032330 -0.014949 0.000000
1.054000 0.055223 -0.014950 -0.014949 0.000000
1.056000 0.055223 -0.014939 0.025759 0.000000
1.058000 0.055223 0.025758 0.080311 0.000000
1.060000 0.055223 0.080308 0.040004 0.000000
1.062000 0.055223 0.040007 -0.011511 0.000000
1.064000 0.055223 -0.011508 -0.011511 0.000000
1.066000 0.055223 -0.011596 -0.038961 0.000000
1.068000 0.055223 -0.038961 -0.023415 0.000000
1.070000 0.053689 -0.023416 0.015262 0.000000
1.072000 0.053689 0.015259 0.015262 0.000000
1.074000 0.053689 0.015247 0.074030 0.000000
1.076000 0.053689 0.074029 0.086555 0.000000
1.078000 0.053689 0.086555 0.032271 0.000000
1.080000 0.053689 0.032275 -0.027610 0.000000
1.082000 0.053689 -0.027607 -0.027610 0.000000
1.084000 0.053689 -0.027685 -0.062816 0.000000
1.086000 0.053689 -0.062815 -0.030845 0.000000
1.088000 0.053689 -0.030847 0.008180 0.000000
1.090000 0.052155 0.008178 0.008180 0.000000
1.092000 0.052155 0.008163 0.061896 0.000000
1.094000 0.052155 0.061895 0.036553 0.000000
1.096000 0.052155 0.036555 -0.008410 0.000000
1.098000 0.052155 -0.008408 -0.049515 0.000000
1.100000 0.052155 -0.049514 -0.049515 0.000000
1.102000 0.052155 -0.049531 -0.048956 0.000000
1.104000 0.052155 -0.048956 -0.014454 0.000000
1.106000 0.050621 -0.014456 0.024131 0.000000
1.108000 0.050621 0.024129 0.024131 0.000000
1.110000 0.050621 0.024051 0.043467 0.000000
1.112000 0.050621 0.043467 -0.009470 0.000000
1.114000 0.050621 -0.009467 -0.033323 0.000000
1.116000 0.050621 -0.033322 -0.031766 0.000000
1.118000 0.050621 -0.031766 -0.031766 0.000000
1.120000 0.050621 -0.031765 -0.013734 0.000000
1.122000 0.050621 -0.013735 0.063997 0.000000
1.124000 0.050621 0.063992 0.070068 0.000000
1.126000 0.049087 0.070068 0.033493 0.000000
1.128000 0.049087 0.033496 0.033493 0.000000
1.130000 0.049087 0.033389 -0.011169 0.000000
1.132000 0.049087 -0.011168 -0.066504 0.000000
1.134000 0.049087 -0.066501 -0.026718 0.000000
1.136000 0.049087 -0.026721 -0.026718 0.000000
1.138000 0.049087 -0.026719 0.000453 0.000000
1.140000 0.049087 0.000452 0.078150 0.000000
1.142000 0.049087 0.078146 0.107045 0.000000
1.144000 0.047553 0.107044 0.040842 0.000000
1.146000 0.047553 0.040847 0.040842 0.000000
1.148000 0.047553 0.040744 -0.006568 0.000000
1.150000 0.047553 -0.006567 -0.043645 0.000000
1.152000 0.047553 -0.043643 -0.024063 0.000000
1.154000 0.047553 -0.024064 -0.024063 0.000000
1.156000 0.047553 -0.024078 -0.023100 0.000000
1.158000 0.047553 -0.023100 0.106756 0.000000
1.160000 0.047553 0.106749 0.074663 0.000000
1.162000 0.047553 0.074666 0.012659 0.000000
1.164000 0.047553 0.012663 0.012659 0.000000
1.166000 0.046019 0.012637 -0.005313 0.000000
1.168000 0.046019 -0.005313 -0.006610 0.000000
1.170000 0.046019 -0.006611 -0.005635 0.000000
1.172000 0.046019 -0.005636 -0.005635 0.000000
1.174000 0.046019 -0.005699 0.007540 0.000000
1.176000 0.046019 0.007539 0.077854 0.000000
1.178000 0.046019 0.077852 0.038610 0.000000
1.180000 0.046019 0.038613 0.002479 0.000000
1.182000 0.046019 0.002481 0.002479 0.000000
1.184000 0.046019 0.002504 -0.020197 0.000000
1.186000 0.046019 -0.020197 0.009542 0.000000
1.188000 0.046019 0.009539 0.008955 0.000000
1.190000 0.046019 0.008954 0.026810 0.000000
1.192000 0.046019 0.026809 0.026810 0.000000
1.194000 0.046019 0.026641 0.051477 0.000000
1.196000 0.046019 0.051477 -0.005283 0.000000
1.198000 0.044485 -0.005280 -0.039208 0.000000
1.200000 0.044485 -0.039207 -0.039208 0.000000
1.202000 0.044485 -0.039115 -0.068425 0.000000
1.204000 0.044485 -0.068424 -0.003464 0.000000
1.206000 0.044485 -0.003468 0.036787 0.000000
1.208000 0.044485 0.036784 0.038095 0.000000
1.210000 0.044485 0.038095 0.038095 0.000000
1.212000 0.044485 0.037912 0.014243 0.000000
1.214000 0.044485 0.014245 0.006819 0.000000
1.216000 0.042951 0.006819 -0.044067 0.000000
1.218000 0.042951 -0.044064 -0.044067 0.000000
1.220000 0.042951 -0.043949 -0.041385 0.000000
1.222000 0.042951 -0.041386 -0.003318 0.000000
1.224000 0.042951 -0.003320 0.037344 0.000000
1.226000 0.042951 0.037342 0.052894 0.000000
1.228000 0.042951 0.052894 0.052894 0.000000
1.230000 0.042951 0.052707 0.027500 0.000000
1.232000 0.042951 0.027501 0.001142 0.000000
1.234000 0.042951 0.001143 -0.021514 0.000000
1.236000 0.042951 -0.021513 -0.021514 0.000000
1.238000 0.041417 -0.021427 -0.018815 0.000000
1.240000 0.041417 -0.018815 0.030737 0.000000
1.242000 0.041417 0.030734 0.030777 0.000000
1.244000 0.042951 0.030777 0.002202 0.000000
1.246000 0.042951 0.002205 0.002202 0.000000
1.248000 0.042951 0.002084 -0.007276 0.000000
1.250000 0.041417 -0.007276 -0.026561 0.000000
1.252000 0.041417 -0.026561 -0.013197 0.000000
1.254000 0.041417 -0.013198 -0.013197 0.000000
1.256000 0.041417 -0.013099 -0.003055 0.000000
1.258000 0.041417 -0.003055 0.041812 0.000000
1.260000 0.041417 0.041809 0.009909 0.000000
1.262000 0.041417 0.009911 -0.023197 0.000000
1.264000 0.041417 -0.023194 -0.023197 0.000000
1.266000 0.041417 -0.023250 -0.015937 0.000000
1.268000 0.041417 -0.015937 -0.034954 0.000000
1.270000 0.041417 -0.034954 -0.016179 0.000000
1.272000 0.039884 -0.016180 0.028441 0.000000
1.274000 0.039884 0.028438 0.028441 0.000000
1.276000 0.041417 0.028442 0.050029 0.000000
1.278000 0.041417 0.050028 0.005403 0.000000
1.280000 0.041417 0.005406 -0.003900 0.000000
1.282000 0.041417 -0.003900 -0.003900 0.000000
1.284000 0.041417 -0.003958 -0.012669 0.000000
1.286000 0.039884 -0.012669 -0.027998 0.000000
1.288000 0.039884 -0.027997 -0.006656 0.000000
1.290000 0.039884 -0.006657 0.021998 0.000000
1.292000 0.039884 0.021997 0.021998 0.000000
1.294000 0.039884 0.021980 0.018729 0.000000
1.296000 0.039884 0.018729 -0.008467 0.000000
1.298000 0.039884 -0.008465 -0.011837 0.000000
1.300000 0.039884 -0.011838 -0.011837 0.000000
1.302000 0.039884 -0.011855 -0.023355 0.000000
1.304000 0.039884 -0.023354 -0.005013 0.000000
1.306000 0.039884 -0.005014 0.016903 0.000000
1.308000 0.039884 0.016902 0.022676 0.000000
1.310000 0.039884 0.022676 0.022676 0.000000
1.312000 0.039884 0.022638 0.007172 0.000000
1.314000 0.039884 0.007172 -0.015344 0.000000
1.316000 0.039884 -0.015343 -0.021781 0.000000
1.318000 0.039884 -0.021781 -0.021781 0.000000
1.320000 0.038350 -0.021752 -0.023048 0.000000
1.322000 0.038350 -0.023048 0.012536 0.000000
1.324000 0.038350 0.012534 0.055997 0.000000
1.326000 0.038350 0.055995 0.045002 0.000000
1.328000 0.038350 0.045003 0.045002 0.000000
1.330000 0.038350 0.044931 0.029485 0.000000
1.332000 0.038350 0.029486 -0.014741 0.000000
1.334000 0.038350 -0.014739 -0.029979 0.000000
1.336000 0.038350 -0.029979 -0.015910 0.000000
1.338000 0.038350 -0.015910 -0.015910 0.000000
1.340000 0.038350 -0.015816 0.039183 0.000000
1.342000 0.038350 0.039181 0.065128 0.000000
1.344000 0.038350 0.065127 0.062558 0.000000
1.346000 0.038350 0.062559 0.062558 0.000000
1.348000 0.038350 0.062468 0.020773 0.000000
1.350000 0.038350 0.020775 -0.034156 0.000000
1.352000 0.038350 -0.034154 -0.035983 0.000000
1.354000 0.038350 -0.035983 -0.030727 0.000000
1.356000 0.038350 -0.030728 -0.030727 0.000000
1.358000 0.038350 -0.030614 0.038884 0.000000
1.360000 0.038350 0.038883 0.050464 0.000000
1.362000 0.038350 0.050464 0.036321 0.000000
1.364000 0.038350 0.036322 0.036321 0.000000
1.366000 0.038350 0.036291 0.001687 0.000000
1.368000 0.038350 0.001688 -0.030059 0.000000
1.370000 0.038350 -0.030057 -0.021192 0.000000
1.372000 0.038350 -0.021193 -0.023200 0.000000
1.374000 0.038350 -0.023199 -0.023200 0.000000
1.376000 0.038350 -0.023098 0.063322 0.000000
1.378000 0.038350 0.063320 0.070874 0.000000
1.380000 0.038350 0.070875 0.015235 0.000000
1.382000 0.038350 0.015238 0.015235 0.000000
1.384000 0.038350 0.015233 -0.025090 0.000000
1.386000 0.038350 -0.025089 -0.023346 0.000000
1.388000 0.038350 -0.023347 -0.019658 0.000000
1.390000 0.038350 -0.019659 -0.003506 0.000000
1.392000 0.038350 -0.003506 -0.003506 0.000000
1.394000 0.038350 -0.003436 0.087520 0.000000
1.396000 0.038350 0.087518 0.054957 0.000000
1.398000 0.038350 0.054960 0.005342 0.000000
1.400000 0.036816 0.005345 -0.067514 0.000000
1.402000 0.036816 -0.067511 -0.067514 0.000000
1.404000 0.036816 -0.067446 -0.046551 0.000000
1.406000 0.038350 -0.046552 -0.020446 0.000000
1.408000 0.038350 -0.020448 -0.021060 0.000000
1.410000 0.036816 -0.021060 -0.021060 0.000000
1.412000 0.036816 -0.020947 0.066962 0.000000
1.414000 0.036816 0.066960 0.075143 0.000000
1.416000 0.036816 0.075144 -0.050204 0.000000
1.418000 0.036816 -0.050197 -0.077089 0.000000
1.420000 0.036816 -0.077088 -0.077089 0.000000
1.422000 0.036816 -0.076996 -0.046183 0.000000
1.424000 0.036816 -0.046184 -0.026342 0.000000
1.426000 0.036816 -0.026343 0.013830 0.000000
1.428000 0.036816 0.013828 0.013830 0.000000
1.430000 0.036816 0.013884 0.077193 0.000000
1.432000 0.036816 0.077191 0.071205 0.000000
1.434000 0.036816 0.071207 -0.032979 0.000000
1.436000 0.036816 -0.032973 -0.070561 0.000000
1.438000 0.036816 -0.070560 -0.070561 0.000000
1.440000 0.036816 -0.070472 -0.039951 0.000000
1.442000 0.036816 -0.039952 -0.007300 0.000000
1.444000 0.036816 -0.007302 0.012698 0.000000
1.446000 0.036816 0.012697 0.012698 0.000000
1.448000 0.036816 0.012757 0.104973 0.000000
1.450000 0.036816 0.104971 0.022459 0.000000
1.452000 0.036816 0.022465 -0.059958 0.000000
1.454000 0.036816 -0.059954 -0.110351 0.000000
1.456000 0.036816 -0.110349 -0.110351 0.000000
1.458000 0.036816 -0.110174 -0.012221 0.000000
1.460000 0.036816 -0.012224 0.025715 0.000000
1.462000 0.036816 0.025713 0.044492 0.000000
1.464000 0.036816 0.044491 0.109810 0.000000
1.466000 0.036816 0.109807 0.109810 0.000000
1.468000 0.036816 0.109726 0.001005 0.000000
1.470000 0.036816 0.001009 -0.119857 0.000000
1.472000 0.036816 -0.119851 -0.038970 0.000000
1.474000 0.036816 -0.038976 -0.038970 0.000000
1.476000 0.036816 -0.038904 -0.005399 0.000000
1.478000 0.036816 -0.005400 0.038585 0.000000
1.480000 0.036816 0.038583 0.082904 0.000000
1.482000 0.036816 0.082902 0.135449 0.000000
1.484000 0.036816 0.135448 0.135449 0.000000
1.486000 0.036816 0.135350 -0.059888 0.000000
1.488000 0.036816 -0.059882 -0.115358 0.000000
1.490000 0.036816 -0.115356 -0.090561 0.000000
1.492000 0.036816 -0.090563 -0.090561 0.000000
1.494000 0.036816 -0.090392 -0.033645 0.000000
1.496000 0.036816 -0.033647 0.083136 0.000000
1.498000 0.036816 0.083129 0.118830 0.000000
1.500000 0.036816 0.118830 0.102887 0.000000
1.502000 0.036816 0.102889 0.102887 0.000000
1.504000 0.036816 0.102816 -0.076298 0.000000
1.506000 0.036816 -0.076292 -0.074683 0.000000
1.508000 0.036816 -0.074685 -0.067380 0.000000
1.510000 0.036816 -0.067380 -0.067380 0.000000
1.512000 0.036816 -0.067263 -0.020264 0.000000
1.514000 0.036816 -0.020266 0.054771 0.000000
1.516000 0.036816 0.054768 0.111140 0.000000
1.518000 0.036816 0.111138 0.061624 0.000000
1.520000 0.036816 0.061628 0.061624 0.000000
1.522000 0.036816 0.061627 -0.115847 0.000000
1.524000 0.036816 -0.115842 -0.086833 0.000000
1.526000 0.036816 -0.086835 -0.038343 0.000000
1.528000 0.036816 -0.038347 0.037978 0.000000
1.530000 0.036816 0.037973 0.037978 0.000000
1.532000 0.036816 0.037932 0.127576 0.000000
1.534000 0.036816 0.127574 0.084895 0.000000
1.536000 0.036816 0.084899 0.031971 0.000000
1.538000 0.035282 0.031975 0.031971 0.000000
1.540000 0.035282 0.032019 -0.078083 0.000000
1.542000 0.035282 -0.078080 -0.063858 0.000000
1.544000 0.035282 -0.063859 -0.026586 0.000000
1.546000 0.036816 -0.026588 0.045055 0.000000
1.548000 0.036816 0.045051 0.045055 0.000000
1.550000 0.036816 0.044983 0.061139 0.000000
1.552000 0.036816 0.061139 0.055369 0.000000
1.554000 0.036816 0.055370 -0.037669 0.000000
1.556000 0.036816 -0.037663 -0.037669 0.000000
1.558000 0.036816 -0.037537 -0.116191 0.000000
1.560000 0.036816 -0.116189 -0.067409 0.000000
1.562000 0.036816 -0.067412 0.031423 0.000000
1.564000 0.036816 0.031417 0.080012 0.000000
1.566000 0.036816 0.080009 0.080012 0.000000
1.568000 0.036816 0.079870 0.055876 0.000000
1.570000 0.036816 0.055877 0.035945 0.000000
1.572000 0.035282 0.035947 -0.050389 0.000000
1.574000 0.035282 -0.050384 -0.050389 0.000000
1.576000 0.035282 -0.050192 -0.066321 0.000000
1.578000 0.035282 -0.066321 -0.046334 0.000000
1.580000 0.036816 -0.046335 0.007350 0.000000
1.582000 0.036816 0.007346 0.086305 0.000000
1.584000 0.036816 0.086301 0.086305 0.000000
1.586000 0.036816 0.086144 0.042420 0.000000
1.588000 0.036816 0.042422 -0.001735 0.000000
1.590000 0.036816 -0.001732 -0.049601 0.000000
1.592000 0.036816 -0.049599 -0.076704 0.000000
1.594000 0.035282 -0.076703 -0.076704 0.000000
1.596000 0.035282 -0.076507 0.020319 0.000000
1.598000 0.035282 0.020316 0.063914 0.000000
1.600000 0.035282 0.063912 0.037489 0.000000
1.602000 0.035282 0.037491 0.037489 0.000000
1.604000 0.035282 0.037362 0.020981 0.000000
1.606000 0.035282 0.020982 -0.009339 0.000000
1.608000 0.035282 -0.009337 -0.024173 0.000000
1.610000 0.035282 -0.024173 -0.052889 0.000000
1.612000 0.035282 -0.052888 -0.052889 0.000000
1.614000 0.035282 -0.052712 -0.027137 0.000000
1.616000 0.036816 -0.027138 0.015855 0.000000
1.618000 0.036816 0.015852 0.028918 0.000000
1.620000 0.036816 0.028917 0.028918 0.000000
1.622000 0.036816 0.028831 0.018040 0.000000
1.624000 0.036816 0.018041 0.006815 0.000000
1.626000 0.036816 0.006816 -0.007169 0.000000
1.628000 0.035282 -0.007169 -0.019096 0.000000
1.630000 0.035282 -0.019095 -0.019096 0.000000
1.632000 0.035282 -0.019010 -0.001376 0.000000
1.634000 0.035282 -0.001376 0.023856 0.000000
1.636000 0.035282 0.023855 0.032653 0.000000
1.638000 0.035282 0.032653 0.032653 0.000000
1.640000 0.035282 0.032582 0.040825 0.000000
1.642000 0.035282 0.040825 0.040574 0.000000
1.644000 0.035282 0.040574 0.016787 0.000000
1.646000 0.035282 0.016789 -0.070795 0.000000
1.648000 0.035282 -0.070790 -0.070795 0.000000
1.650000 0.036816 -0.070668 -0.071484 0.000000
1.652000 0.036816 -0.071484 -0.004419 0.000000
1.654000 0.036816 -0.004423 0.029211 0.000000
1.656000 0.036816 0.029209 0.042570 0.000000
1.658000 0.036816 0.042569 0.042570 0.000000
1.660000 0.036816 0.042554 0.078958 0.000000
1.662000 0.035282 0.078957 0.033748 0.000000
1.664000 0.035282 0.033751 -0.026721 0.000000
1.666000 0.035282 -0.026717 -0.026721 0.000000
1.668000 0.035282 -0.026706 -0.044082 0.000000
1.670000 0.035282 -0.044082 0.012202 0.000000
1.672000 0.035282 0.012199 0.043774 0.000000
1.674000 0.035282 0.043772 0.045418 0.000000
1.676000 0.035282 0.045418 0.045418 0.000000
1.678000 0.035282 0.045415 0.017615 0.000000
1.680000 0.035282 0.017616 -0.073168 0.000000
1.682000 0.035282 -0.073162 -0.103220 0.000000
1.684000 0.035282 -0.103218 -0.103220 0.000000
1.686000 0.035282 -0.103063 -0.035751 0.000000
1.688000 0.035282 -0.035753 0.035749 0.000000
1.690000 0.035282 0.035744 0.083657 0.000000
1.692000 0.035282 0.083654 0.072919 0.000000
1.694000 0.035282 0.072921 0.072919 0.000000
1.696000 0.035282 0.072834 0.010532 0.000000
1.698000 0.035282 0.010534 -0.029857 0.000000
1.700000 0.035282 -0.029854 -0.052620 0.000000
1.702000 0.033748 -0.052619 -0.052620 0.000000
1.704000 0.033748 -0.052564 0.021458 0.000000
1.706000 0.033748 0.021456 0.079462 0.000000
1.708000 0.033748 0.079459 0.090047 0.000000
1.710000 0.033748 0.090047 0.027141 0.000000
1.712000 0.033748 0.027145 0.027141 0.000000
1.714000 0.035282 0.027106 -0.116098 0.000000
1.716000 0.035282 -0.116093 -0.118095 0.000000
1.718000 0.035282 -0.118096 -0.080197 0.000000
1.720000 0.035282 -0.080199 0.070714 0.000000
1.722000 0.035282 0.070705 0.070714 0.000000
1.724000 0.035282 0.070598 0.125990 0.000000
1.726000 0.035282 0.125989 0.094297 0.000000
1.728000 0.035282 0.094300 0.016953 0.000000
1.730000 0.033748 0.016958 0.016953 0.000000
1.732000 0.033748 0.016927 -0.064745 0.000000
1.734000 0.033748 -0.064742 -0.058598 0.000000
1.736000 0.033748 -0.058598 -0.001477 0.000000
1.738000 0.033748 -0.001480 0.121888 0.000000
1.740000 0.033748 0.121882 0.121888 0.000000
1.742000 0.033748 0.121678 0.097365 0.000000
1.744000 0.033748 0.097366 0.031081 0.000000
1.746000 0.033748 0.031085 -0.089882 0.000000
1.748000 0.033748 -0.089876 -0.089882 0.000000
1.750000 0.033748 -0.089744 -0.098724 0.000000
1.752000 0.033748 -0.098724 -0.045933 0.000000
1.754000 0.033748 -0.045937 0.024981 0.000000
1.756000 0.033748 0.024977 0.099579 0.000000
1.758000 0.033748 0.099576 0.099579 0.000000
1.760000 0.033748 0.099381 0.065240 0.000000
1.762000 0.033748 0.065242 -0.012383 0.000000
1.764000 0.033748 -0.012378 -0.067177 0.000000
1.766000 0.032214 -0.067175 -0.067177 0.000000
1.768000 0.032214 -0.067056 -0.041127 0.000000
1.770000 0.032214 -0.041128 0.040703 0.000000
1.772000 0.032214 0.040698 0.093607 0.000000
1.774000 0.032214 0.093605 0.129603 0.000000
1.776000 0.032214 0.129602 0.129603 0.000000
1.778000 0.032214 0.129332 -0.034345 0.000000
1.780000 0.032214 -0.034340 -0.113066 0.000000
1.782000 0.032214 -0.113063 -0.116989 0.000000
1.784000 0.032214 -0.116989 0.003962 0.000000
1.786000 0.032214 0.003955 0.003962 0.000000
1.788000 0.032214 0.003986 0.075854 0.000000
1.790000 0.032214 0.075852 0.108612 0.000000
1.792000 0.032214 0.108611 0.060223 0.000000
1.794000 0.032214 0.060227 0.060223 0.000000
1.796000 0.032214 0.060003 -0.040425 0.000000
1.798000 0.032214 -0.040422 -0.038580 0.000000
1.800000 0.030680 -0.038581 -0.014683 0.000000
1.802000 0.030680 -0.014684 0.067804 0.000000
1.804000 0.030680 0.067800 0.067804 0.000000
1.806000 0.030680 0.067689 0.057776 0.000000
1.808000 0.030680 0.057777 0.054619 0.000000
1.810000 0.030680 0.054620 0.005968 0.000000
1.812000 0.030680 0.005970 0.005968 0.000000
1.814000 0.030680 0.005860 -0.061710 0.000000
1.816000 0.030680 -0.061708 -0.036741 0.000000
1.818000 0.030680 -0.036743 -0.003502 0.000000
1.820000 0.030680 -0.003504 0.025671 0.000000
1.822000 0.030680 0.025669 0.025671 0.000000
1.824000 0.030680 0.025536 0.001357 0.000000
1.826000 0.030680 0.001358 -0.005126 0.000000
1.828000 0.030680 -0.005126 -0.007970 0.000000
1.830000 0.030680 -0.007970 -0.007970 0.000000
1.832000 0.029146 -0.008040 0.050265 0.000000
1.834000 0.029146 0.050263 0.060526 0.000000
1.836000 0.029146 0.060526 0.055346 0.000000
1.838000 0.029146 0.055347 0.032332 0.000000
1.840000 0.029146 0.032334 0.032332 0.000000
1.842000 0.029146 0.032252 -0.054560 0.000000
1.844000 0.029146 -0.054558 -0.041365 0.000000
1.846000 0.029146 -0.041367 -0.029101 0.000000
1.848000 0.029146 -0.029102 0.024633 0.000000
1.850000 0.029146 0.024630 0.024633 0.000000
1.852000 0.029146 0.024558 0.019632 0.000000
1.854000 0.029146 0.019633 0.038283 0.000000
1.856000 0.029146 0.038282 0.003045 0.000000
1.858000 0.029146 0.003048 0.003045 0.000000
1.860000 0.029146 0.002939 -0.041518 0.000000
1.862000 0.027612 -0.041517 -0.006153 0.000000
1.864000 0.027612 -0.006155 0.023559 0.000000
1.866000 0.027612 0.023557 0.032156 0.000000
1.868000 0.027612 0.032157 0.032156 0.000000
1.870000 0.027612 0.032058 0.000470 0.000000
1.872000 0.027612 0.000471 -0.026618 0.000000
1.874000 0.027612 -0.026616 -0.051759 0.000000
1.876000 0.027612 -0.051758 -0.051759 0.000000
1.878000 0.027612 -0.051731 -0.046787 0.000000
1.880000 0.027612 -0.046788 0.005754 0.000000
1.882000 0.027612 0.005751 0.022425 0.000000
1.884000 0.027612 0.022424 0.010726 0.000000
1.886000 0.027612 0.010727 0.010726 0.000000
1.888000 0.026078 0.010617 -0.009366 0.000000
1.890000 0.026078 -0.009366 -0.021319 0.000000
1.892000 0.026078 -0.021319 -0.015023 0.000000
1.894000 0.026078 -0.015024 -0.015023 0.000000
1.896000 0.026078 -0.015078 0.014414 0.000000
1.898000 0.024544 0.014414 0.033066 0.000000
1.900000 0.024544 0.033065 0.025968 0.000000
1.902000 0.024544 0.025969 -0.014348 0.000000
1.904000 0.024544 -0.014346 -0.014348 0.000000
1.906000 0.024544 -0.014377 -0.029219 0.000000
1.908000 0.024544 -0.029218 -0.043583 0.000000
1.910000 0.024544 -0.043582 -0.039440 0.000000
1.912000 0.024544 -0.039440 -0.007901 0.000000
1.914000 0.024544 -0.007903 -0.007901 0.000000
1.916000 0.024544 -0.007994 0.005344 0.000000
1.918000 0.024544 0.005344 0.002335 0.000000
1.920000 0.024544 0.002335 -0.004183 0.000000
1.922000 0.024544 -0.004183 -0.004183 0.000000
1.924000 0.023010 -0.004225 0.011598 0.000000
1.926000 0.023010 0.011597 0.015645 0.000000
1.928000 0.023010 0.015645 0.020319 0.000000
1.930000 0.023010 0.020319 0.025765 0.000000
1.932000 0.023010 0.025765 0.025765 0.000000
1.934000 0.023010 0.025618 0.007793 0.000000
1.936000 0.023010 0.007793 -0.021613 0.000000
1.938000 0.021476 -0.021611 -0.047430 0.000000
1.940000 0.021476 -0.047429 -0.047430 0.000000
1.942000 0.021476 -0.047424 -0.016102 0.000000
1.944000 0.021476 -0.016103 0.014909 0.000000
1.946000 0.021476 0.014907 0.021418 0.000000
1.948000 0.021476 0.021418 0.006623 0.000000
1.950000 0.021476 0.006624 0.006623 0.000000
1.952000 0.021476 0.006520 -0.011935 0.000000
1.954000 0.021476 -0.011935 -0.026889 0.000000
1.956000 0.021476 -0.026888 -0.031450 0.000000
1.958000 0.021476 -0.031450 -0.031450 0.000000
1.960000 0.021476 -0.031457 0.027546 0.000000
1.962000 0.021476 0.027544 0.035098 0.000000
1.964000 0.019942 0.035097 0.031591 0.000000
1.966000 0.019942 0.031591 -0.006114 0.000000
1.968000 0.019942 -0.006113 -0.006114 0.000000
1.970000 0.019942 -0.006180 -0.023844 0.000000
1.972000 0.019942 -0.023843 -0.025963 0.000000
1.974000 0.019942 -0.025963 -0.013192 0.000000
1.976000 0.019942 -0.013193 -0.009845 0.000000
1.978000 0.019942 -0.009845 -0.009845 0.000000
1.980000 0.019942 -0.009936 -0.013837 0.000000
1.982000 0.019942 -0.013837 -0.028492 0.000000
1.984000 0.019942 -0.028491 -0.018126 0.000000
1.986000 0.019942 -0.018127 -0.018126 0.000000
1.988000 0.019942 -0.018140 0.008594 0.000000
1.990000 0.019942 0.008594 0.031295 0.000000
1.992000 0.018408 0.031293 0.052249 0.000000
1.994000 0.018408 0.052248 0.010268 0.000000
1.996000 0.018408 0.010271 0.010268 0.000000
1.998000 0.018408 0.010145 -0.028858 0.000000
2.000000 0.018408 -0.028857 -0.033609 0.000000
2.002000 0.018408 -0.033610 -0.031611 0.000000
2.004000 0.018408 -0.031612 -0.031611 0.000000
2.006000 0.018408 -0.031648 0.026454 0.000000
2.008000 0.018408 0.026453 0.025916 0.000000
2.010000 0.018408 0.025916 0.004151 0.000000
2.012000 0.018408 0.004152 -0.085331 0.000000
2.014000 0.018408 -0.085327 -0.085331 0.000000
2.016000 0.018408 -0.085326 -0.061828 0.000000
2.018000 0.018408 -0.061829 -0.018530 0.000000
2.020000 0.018408 -0.018533 0.030813 0.000000
2.022000 0.016874 0.030810 0.030813 0.000000
2.024000 0.016874 0.030721 0.046090 0.000000
2.026000 0.016874 0.046090 -0.003547 0.000000
2.028000 0.016874 -0.003544 -0.064267 0.000000
2.030000 0.016874 -0.064263 -0.053048 0.000000
2.032000 0.016874 -0.053050 -0.053048 0.000000
2.034000 0.016874 -0.053000 0.023588 0.000000
2.036000 0.016874 0.023586 0.090938 0.000000
2.038000 0.016874 0.090934 0.087431 0.000000
2.040000 0.016874 0.087432 -0.028732 0.000000
2.042000 0.016874 -0.028725 -0.028732 0.000000
2.044000 0.016874 -0.028787 -0.104051 0.000000
2.046000 0.016874 -0.104049 -0.109697 0.000000
2.048000 0.015340 -0.109697 0.007192 0.000000
2.050000 0.015340 0.007185 0.007192 0.000000
2.052000 0.015340 0.007143 0.066024 0.000000
2.054000 0.015340 0.066023 0.065667 0.000000
2.056000 0.015340 0.065667 0.025159 0.000000
2.058000 0.015340 0.025162 -0.091475 0.000000
2.060000 0.015340 -0.091469 -0.091475 0.000000
2.062000 0.015340 -0.091389 -0.069270 0.000000
2.064000 0.015340 -0.069271 -0.025399 0.000000
2.066000 0.015340 -0.025402 0.058366 0.000000
2.068000 0.015340 0.058361 0.058366 0.000000
2.070000 0.015340 0.058237 0.053973 0.000000
2.072000 0.015340 0.053974 -0.019487 0.000000
2.074000 0.015340 -0.019483 -0.087852 0.000000
2.076000 0.015340 -0.087848 -0.045737 0.000000
2.078000 0.013806 -0.045740 -0.045737 0.000000
2.080000 0.013806 -0.045653 0.015694 0.000000
2.082000 0.013806 0.015692 0.080683 0.000000
2.084000 0.013806 0.080680 0.068518 0.000000
2.086000 0.013806 0.068519 0.068518 0.000000
2.088000 0.015340 0.068353 -0.063729 0.000000
2.090000 0.015340 -0.063725 -0.093016 0.000000
2.092000 0.013806 -0.093015 -0.078885 0.000000
2.094000 0.013806 -0.078887 0.044403 0.000000
2.096000 0.013806 0.044396 0.044403 0.000000
2.098000 0.013806 0.044387 0.088775 0.000000
2.100000 0.013806 0.088774 0.043719 0.000000
2.102000 0.013806 0.043723 -0.012711 0.000000
2.104000 0.013806 -0.012707 -0.075775 0.000000
2.106000 0.013806 -0.075772 -0.075775 0.000000
2.108000 0.013806 -0.075710 -0.037641 0.000000
2.110000 0.013806 -0.037643 0.021800 0.000000
2.112000 0.013806 0.021796 0.045613 0.000000
2.114000 0.013806 0.045612 0.045613 0.000000
2.116000 0.013806 0.045521 -0.002013 0.000000
2.118000 0.013806 -0.002011 -0.075685 0.000000
2.120000 0.013806 -0.075680 -0.081503 0.000000
2.122000 0.013806 -0.081503 0.006761 0.000000
2.124000 0.013806 0.006755 0.006761 0.000000
2.126000 0.013806 0.006786 0.057123 0.000000
2.128000 0.013806 0.057121 0.083078 0.000000
2.130000 0.013806 0.083077 -0.032575 0.000000
2.132000 0.013806 -0.032567 -0.032575 0.000000
2.134000 0.013806 -0.032603 -0.085086 0.000000
2.136000 0.013806 -0.085085 -0.076352 0.000000
2.138000 0.013806 -0.076353 -0.027185 0.000000
2.140000 0.013806 -0.027188 0.042807 0.000000
2.142000 0.013806 0.042803 0.042807 0.000000
2.144000 0.013806 0.042788 0.053770 0.000000
2.146000 0.013806 0.053770 0.007286 0.000000
2.148000 0.013806 0.007289 -0.047625 0.000000
2.150000 0.013806 -0.047621 -0.047625 0.000000
2.152000 0.013806 -0.047590 -0.036413 0.000000
2.154000 0.013806 -0.036413 -0.001463 0.000000
2.156000 0.013806 -0.001466 0.025910 0.000000
2.158000 0.013806 0.025908 -0.009896 0.000000
2.160000 0.013806 -0.009894 -0.009896 0.000000
2.162000 0.013806 -0.009921 -0.037012 0.000000
2.164000 0.013806 -0.037011 -0.044496 0.000000
2.166000 0.013806 -0.044495 -0.041664 0.000000
2.168000 0.013806 -0.041665 0.008742 0.000000
2.170000 0.013806 0.008738 0.008742 0.000000
2.172000 0.013806 0.008769 0.019382 0.000000
2.174000 0.013806 0.019382 0.008586 0.000000
2.176000 0.013806 0.008587 -0.049642 0.000000
2.178000 0.013806 -0.049637 -0.049642 0.000000
2.180000 0.013806 -0.049578 -0.045820 0.000000
2.182000 0.013806 -0.045820 -0.029679 0.000000
2.184000 0.013806 -0.029680 -0.020368 0.000000
2.186000 0.013806 -0.020369 -0.003957 0.000000
2.188000 0.013806 -0.003958 -0.003957 0.000000
2.190000 0.013806 -0.003942 0.017117 0.000000
2.192000 0.013806 0.017116 0.026808 0.000000
2.194000 0.013806 0.026808 -0.009405 0.000000
2.196000 0.013806 -0.009403 -0.009405 0.000000
2.198000 0.013806 -0.009373 -0.014103 0.000000
2.200000 0.013806 -0.014103 -0.024457 0.000000
2.202000 0.013806 -0.024457 -0.037134 0.000000
2.204000 0.013806 -0.037134 -0.011570 0.000000
2.206000 0.013806 -0.011571 -0.011570 0.000000
2.208000 0.013806 -0.011556 -0.007661 0.000000
2.210000 0.013806 -0.007661 0.006744 0.000000
2.212000 0.013806 0.006743 -0.035982 0.000000
2.214000 0.013806 -0.035980 -0.035982 0.000000
2.216000 0.013806 -0.035877 -0.038781 0.000000
2.218000 0.013806 -0.038781 -0.025283 0.000000
2.220000 0.013806 -0.025284 -0.005664 0.000000
2.222000 0.013806 -0.005665 0.017814 0.000000
2.224000 0.013806 0.017813 0.017814 0.000000
2.226000 0.013806 0.017804 -0.005593 0.000000
2.228000 0.013806 -0.005592 -0.021837 0.000000
2.230000 0.013806 -0.021837 -0.029554 0.000000
2.232000 0.013806 -0.029554 0.015448 0.000000
2.234000 0.013806 0.015446 0.015448 0.000000
2.236000 0.013806 0.015488 0.052694 0.000000
2.238000 0.013806 0.052693 0.037557 0.000000
2.240000 0.013806 0.037558 -0.037908 0.000000
2.242000 0.013806 -0.037904 -0.037908 0.000000
2.244000 0.013806 -0.037864 -0.054414 0.000000
2.246000 0.013806 -0.054414 -0.043758 0.000000
2.248000 0.013806 -0.043759 -0.005973 0.000000
2.250000 0.013806 -0.005976 0.045966 0.000000
2.252000 0.013806 0.045963 0.045966 0.000000
2.254000 0.013806 0.045975 0.007484 0.000000
2.256000 0.013806 0.007485 -0.032999 0.000000
2.258000 0.013806 -0.032997 -0.039562 0.000000
2.260000 0.013806 -0.039562 -0.039562 0.000000
2.262000 0.013806 -0.039476 0.016881 0.000000
2.264000 0.013806 0.016879 0.079108 0.000000
2.266000 0.013806 0.079105 0.066909 0.000000
2.268000 0.013806 0.066911 -0.039262 0.000000
2.270000 0.013806 -0.039256 -0.039262 0.000000
2.272000 0.013806 -0.039195 -0.075655 0.000000
2.274000 0.013806 -0.075654 -0.075247 0.000000
2.276000 0.013806 -0.075248 0.051484 0.000000
2.278000 0.013806 0.051477 0.051484 0.000000
2.280000 0.013806 0.051486 0.074083 0.000000
2.282000 0.015340 0.074083 0.038495 0.000000
2.284000 0.015340 0.038498 -0.014095 0.000000
2.286000 0.015340 -0.014091 -0.085024 0.000000
2.288000 0.015340 -0.085020 -0.085024 0.000000
2.290000 0.015340 -0.084876 -0.035743 0.000000
2.292000 0.015340 -0.035745 0.036069 0.000000
2.294000 0.015340 0.036065 0.043529 0.000000
2.296000 0.015340 0.043528 0.001098 0.000000
2.298000 0.015340 0.001100 0.001098 0.000000
2.300000 0.015340 0.001119 -0.054433 0.000000
2.302000 0.015340 -0.054431 -0.066803 0.000000
2.304000 0.015340 -0.066803 0.036048 0.000000
2.306000 0.015340 0.036042 0.036048 0.000000
2.308000 0.015340 0.036079 0.074201 0.000000
2.310000 0.015340 0.074200 0.039639 0.000000
2.312000 0.015340 0.039642 -0.074560 0.000000
2.314000 0.015340 -0.074554 -0.099496 0.000000
2.316000 0.015340 -0.099495 -0.099496 0.000000
2.318000 0.015340 -0.099362 -0.051928 0.000000
2.320000 0.015340 -0.051930 0.014810 0.000000
2.322000 0.015340 0.014806 0.048332 0.000000
2.324000 0.015340 0.048330 0.048332 0.000000
2.326000 0.015340 0.048332 -0.000310 0.000000
2.328000 0.016874 -0.000308 -0.048041 0.000000
2.330000 0.016874 -0.048039 -0.047088 0.000000
2.332000 0.016874 -0.047088 0.025007 0.000000
2.334000 0.015340 0.025003 0.025007 0.000000
2.336000 0.015340 0.025076 0.079835 0.000000
2.338000 0.015340 0.079834 0.051298 0.000000
2.340000 0.015340 0.051300 -0.050113 0.000000
2.342000 0.016874 -0.050107 -0.050113 0.000000
2.344000 0.016874 -0.050046 -0.088218 0.000000
2.346000 0.016874 -0.088217 -0.051514 0.000000
2.348000 0.016874 -0.051517 0.025231 0.000000
2.350000 0.016874 0.025227 0.052145 0.000000
2.352000 0.016874 0.052144 0.052145 0.000000
2.354000 0.016874 0.052139 0.000259 0.000000
2.356000 0.016874 0.000261 -0.054641 0.000000
2.358000 0.016874 -0.054638 -0.076031 0.000000
2.360000 0.016874 -0.076029 0.011716 0.000000
2.362000 0.016874 0.011711 0.011716 0.000000
2.364000 0.016874 0.011790 0.089998 0.000000
2.366000 0.016874 0.089996 0.061109 0.000000
2.368000 0.016874 0.061111 -0.039874 0.000000
2.370000 0.016874 -0.039868 -0.039874 0.000000
2.372000 0.016874 -0.039814 -0.090670 0.000000
2.374000 0.016874 -0.090669 -0.073924 0.000000
2.376000 0.016874 -0.073924 0.079497 0.000000
2.378000 0.016874 0.079488 0.051257 0.000000
2.380000 0.016874 0.051259 0.051257 0.000000
2.382000 0.016874 0.051265 0.010254 0.000000
2.384000 0.016874 0.010255 -0.044890 0.000000
2.386000 0.016874 -0.044887 -0.076213 0.000000
2.388000 0.016874 -0.076211 -0.076213 0.000000
2.390000 0.016874 -0.076068 0.034046 0.000000
2.392000 0.016874 0.034042 0.096619 0.000000
2.394000 0.016874 0.096615 0.019538 0.000000
2.396000 0.016874 0.019542 -0.028952 0.000000
2.398000 0.018408 -0.028950 -0.028952 0.000000
2.400000 0.018408 -0.028947 -0.090994 0.000000
2.402000 0.018408 -0.090993 -0.072813 0.000000
2.404000 0.018408 -0.072814 0.079335 0.000000
2.406000 0.018408 0.079327 0.079335 0.000000
2.408000 0.018408 0.079337 0.051990 0.000000
2.410000 0.018408 0.051991 0.015087 0.000000
2.412000 0.018408 0.015089 -0.083445 0.000000
2.414000 0.018408 -0.083439 -0.045203 0.000000
2.416000 0.018408 -0.045205 -0.045203 0.000000
2.418000 0.018408 -0.045115 0.052391 0.000000
2.420000 0.018408 0.052389 0.106865 0.000000
2.422000 0.018408 0.106862 0.006049 0.000000
2.424000 0.018408 0.006054 -0.046732 0.000000
2.426000 0.018408 -0.046729 -0.046732 0.000000
2.428000 0.018408 -0.046700 -0.091808 0.000000
2.430000 0.018408 -0.091806 -0.063868 0.000000
2.432000 0.018408 -0.063869 0.113163 0.000000
2.434000 0.018408 0.113153 0.113163 0.000000
2.436000 0.018408 0.113100 0.070881 0.000000
2.438000 0.018408 0.070883 0.017675 0.000000
2.440000 0.018408 0.017678 -0.090610 0.000000
2.442000 0.018408 -0.090604 -0.067351 0.000000
2.444000 0.018408 -0.067352 -0.067351 0.000000
2.446000 0.018408 -0.067233 0.036842 0.000000
2.448000 0.018408 0.036839 0.098437 0.000000
2.450000 0.018408 0.098434 -0.002076 0.000000
2.452000 0.018408 -0.002070 -0.002076 0.000000
2.454000 0.018408 -0.002053 -0.042744 0.000000
2.456000 0.018408 -0.042743 -0.071038 0.000000
2.458000 0.018408 -0.071036 0.057323 0.000000
2.460000 0.018408 0.057316 0.121924 0.000000
2.462000 0.018408 0.121920 0.121924 0.000000
2.464000 0.018408 0.121846 0.060672 0.000000
2.466000 0.018408 0.060674 0.001734 0.000000
2.468000 0.018408 0.001737 -0.080421 0.000000
2.470000 0.018408 -0.080417 -0.080421 0.000000
2.472000 0.018408 -0.080349 -0.056372 0.000000
2.474000 0.018408 -0.056373 0.052354 0.000000
2.476000 0.018408 0.052348 0.036987 0.000000
2.478000 0.018408 0.036987 -0.020249 0.000000
2.480000 0.018408 -0.020246 -0.020249 0.000000
2.482000 0.019942 -0.020215 -0.054627 0.000000
2.484000 0.019942 -0.054627 -0.077925 0.000000
2.486000 0.019942 -0.077924 0.072297 0.000000
2.488000 0.019942 0.072290 0.109387 0.000000
2.490000 0.019942 0.109386 0.109387 0.000000
2.492000 0.019942 0.109327 0.054500 0.000000
2.494000 0.018408 0.054502 -0.059217 0.000000
2.496000 0.018408 -0.059211 -0.069661 0.000000
2.498000 0.018408 -0.069660 -0.069661 0.000000
2.500000 0.018408 -0.069604 -0.022008 0.000000
2.502000 0.018408 -0.022009 0.090889 0.000000
2.504000 0.018408 0.090883 0.054869 0.000000
2.506000 0.018408 0.054872 -0.030250 0.000000
2.508000 0.018408 -0.030245 -0.030250 0.000000
2.510000 0.018408 -0.030247 -0.071746 0.000000
2.512000 0.018408 -0.071745 -0.084507 0.000000
2.514000 0.018408 -0.084507 0.061839 0.000000
2.516000 0.018408 0.061832 0.061839 0.000000
2.518000 0.018408 0.061812 0.092180 0.000000
2.520000 0.018408 0.092179 0.037350 0.000000
2.522000 0.019942 0.037353 -0.056742 0.000000
2.524000 0.019942 -0.056737 -0.068649 0.000000
2.526000 0.019942 -0.068648 -0.068649 0.000000
2.528000 0.019942 -0.068574 0.006999 0.000000
2.530000 0.018408 0.006997 0.123168 0.000000
2.532000 0.018408 0.123162 0.012608 0.000000
2.534000 0.018408 0.012614 0.012608 0.000000
2.536000 0.018408 0.012573 -0.037896 0.000000
2.538000 0.018408 -0.037895 -0.071874 0.000000
2.540000 0.018408 -0.071873 0.008090 0.000000
2.542000 0.018408 0.008086 0.111245 0.000000
2.544000 0.018408 0.111240 0.111245 0.000000
2.546000 0.018408 0.111139 0.077502 0.000000
2.548000 0.018408 0.077503 0.026416 0.000000
2.550000 0.018408 0.026419 -0.063180 0.000000
2.552000 0.018408 -0.063176 -0.054512 0.000000
2.554000 0.018408 -0.054513 -0.054512 0.000000
2.556000 0.018408 -0.054478 0.018306 0.000000
2.558000 0.018408 0.018304 0.074909 0.000000
2.560000 0.018408 0.074906 0.004055 0.000000
2.562000 0.018408 0.004059 0.004055 0.000000
2.564000 0.018408 0.004019 -0.040946 0.000000
2.566000 0.018408 -0.040945 -0.065180 0.000000
2.568000 0.018408 -0.065179 0.053237 0.000000
2.570000 0.018408 0.053230 0.121997 0.000000
2.572000 0.018408 0.121994 0.121997 0.000000
2.574000 0.018408 0.121846 0.051325 0.000000
2.576000 0.018408 0.051328 -0.053929 0.000000
2.578000 0.018408 -0.053924 -0.081056 0.000000
2.580000 0.018408 -0.081055 -0.081056 0.000000
2.582000 0.018408 -0.081021 -0.032570 0.000000
2.584000 0.018408 -0.032572 0.037354 0.000000
2.586000 0.018408 0.037350 0.052835 0.000000
2.588000 0.018408 0.052835 0.008558 0.000000
2.590000 0.018408 0.008560 0.008558 0.000000
2.592000 0.018408 0.008497 -0.059664 0.000000
2.594000 0.018408 -0.059662 -0.056540 0.000000
2.596000 0.018408 -0.056540 0.077599 0.000000
2.598000 0.018408 0.077592 0.077599 0.000000
2.600000 0.018408 0.077500 0.082081 0.000000
2.602000 0.018408 0.082081 0.049749 0.000000
2.604000 0.018408 0.049751 -0.049656 0.000000
2.606000 0.018408 -0.049651 -0.049683 0.000000
2.608000 0.016874 -0.049683 -0.049683 0.000000
2.610000 0.016874 -0.049659 -0.013025 0.000000
2.612000 0.016874 -0.013026 0.082671 0.000000
2.614000 0.016874 0.082666 0.016889 0.000000
2.616000 0.016874 0.016894 -0.018702 0.000000
2.618000 0.016874 -0.018700 -0.018702 0.000000
2.620000 0.016874 -0.018757 -0.055751 0.000000
2.622000 0.016874 -0.055751 0.002501 0.000000
2.624000 0.016874 0.002497 0.084884 0.000000
2.626000 0.016874 0.084881 0.084884 0.000000
2.628000 0.016874 0.084761 0.064112 0.000000
2.630000 0.016874 0.064113 0.010002 0.000000
2.632000 0.016874 0.010005 -0.061938 0.000000
2.634000 0.016874 -0.061935 -0.046599 0.000000
2.636000 0.016874 -0.046600 -0.046599 0.000000
2.638000 0.016874 -0.046573 0.015833 0.000000
2.640000 0.016874 0.015831 0.057407 0.000000
2.642000 0.016874 0.057406 -0.005219 0.000000
2.644000 0.016874 -0.005215 -0.005219 0.000000
2.646000 0.016874 -0.005267 -0.039747 0.000000
2.648000 0.016874 -0.039747 -0.061021 0.000000
2.650000 0.016874 -0.061020 -0.061021 0.000000
2.652000 0.016874 -0.060990 0.020814 0.000000
2.654000 0.016874 0.020811 0.081016 0.000000
2.656000 0.016874 0.081013 0.052572 0.000000
2.658000 0.016874 0.052574 -0.042849 0.000000
2.660000 0.016874 -0.042845 -0.042849 0.000000
2.662000 0.015340 -0.042873 -0.060509 0.000000
2.664000 0.015340 -0.060509 -0.039368 0.000000
2.666000 0.015340 -0.039370 0.030634 0.000000
2.668000 0.015340 0.030630 0.030634 0.000000
2.670000 0.015340 0.030573 0.031723 0.000000
2.672000 0.015340 0.031723 -0.024941 0.000000
2.674000 0.015340 -0.024938 -0.061658 0.000000
2.676000 0.015340 -0.061657 -0.059112 0.000000
2.678000 0.015340 -0.059113 0.062129 0.000000
2.680000 0.015340 0.062123 0.072057 0.000000
2.682000 0.015340 0.072058 0.072057 0.000000
2.684000 0.015340 0.071925 0.019347 0.000000
2.686000 0.015340 0.019348 -0.064108 0.000000
2.688000 0.015340 -0.064104 -0.058092 0.000000
2.690000 0.015340 -0.058093 -0.058092 0.000000
2.692000 0.015340 -0.058085 -0.002238 0.000000
2.694000 0.015340 -0.002239 0.085232 0.000000
2.696000 0.015340 0.085228 0.015616 0.000000
2.698000 0.015340 0.015620 -0.045015 0.000000
2.700000 0.015340 -0.045012 -0.045015 0.000000
2.702000 0.013806 -0.045043 -0.070996 0.000000
2.704000 0.013806 -0.070996 0.011007 0.000000
2.706000 0.013806 0.011002 0.011007 0.000000
2.708000 0.013806 0.010964 0.074843 0.000000
2.710000 0.013806 0.074842 0.061887 0.000000
2.712000 0.013806 0.061888 -0.004162 0.000000
2.714000 0.013806 -0.004158 -0.062660 0.000000
2.716000 0.013806 -0.062658 -0.031038 0.000000
2.718000 0.013806 -0.031040 -0.031038 0.000000
2.720000 0.013806 -0.031026 0.047091 0.000000
2.722000 0.013806 0.047089 0.071473 0.000000
2.724000 0.013806 0.071473 -0.003488 0.000000
2.726000 0.013806 -0.003484 -0.003488 0.000000
2.728000 0.013806 -0.003579 -0.058863 0.000000
2.730000 0.013806 -0.058861 -0.073908 0.000000
2.732000 0.013806 -0.073908 0.066827 0.000000
2.734000 0.013806 0.066820 0.112700 0.000000
2.736000 0.013806 0.112699 0.112700 0.000000
2.738000 0.013806 0.112518 0.028976 0.000000
2.740000 0.013806 0.028979 -0.075560 0.000000
2.742000 0.013806 -0.075555 -0.068855 0.000000
2.744000 0.013806 -0.068856 -0.004240 0.000000
2.746000 0.013806 -0.004244 -0.004240 0.000000
2.748000 0.012272 -0.004259 0.090147 0.000000
2.750000 0.012272 0.090145 0.016788 0.000000
2.752000 0.012272 0.016792 -0.054097 0.000000
2.754000 0.012272 -0.054093 -0.054097 0.000000
2.756000 0.012272 -0.054127 -0.087639 0.000000
2.758000 0.012272 -0.087638 0.034944 0.000000
2.760000 0.012272 0.034937 0.131031 0.000000
2.762000 0.012272 0.131027 0.096771 0.000000
2.764000 0.012272 0.096774 0.096771 0.000000
2.766000 0.012272 0.096604 0.009497 0.000000
2.768000 0.012272 0.009500 -0.084579 0.000000
2.770000 0.012272 -0.084575 -0.034427 0.000000
2.772000 0.012272 -0.034430 -0.034427 0.000000
2.774000 0.012272 -0.034427 0.054103 0.000000
2.776000 0.012272 0.054101 0.128734 0.000000
2.778000 0.012272 0.128731 -0.019842 0.000000
2.780000 0.012272 -0.019834 -0.091812 0.000000
2.782000 0.012272 -0.091808 -0.091812 0.000000
2.784000 0.012272 -0.091801 -0.090291 0.000000
2.786000 0.012272 -0.090292 0.096022 0.000000
2.788000 0.012272 0.096012 0.143738 0.000000
2.790000 0.012272 0.143736 0.143738 0.000000
2.792000 0.012272 0.143543 0.032821 0.000000
2.794000 0.012272 0.032824 -0.044334 0.000000
2.796000 0.010738 -0.044330 -0.072867 0.000000
2.798000 0.010738 -0.072867 0.006754 0.000000
2.800000 0.010738 0.006750 0.006754 0.000000
2.802000 0.010738 0.006747 0.121074 0.000000
2.804000 0.010738 0.121071 0.001808 0.000000
2.806000 0.010738 0.001816 -0.071050 0.000000
2.808000 0.010738 -0.071047 -0.097517 0.000000
2.810000 0.010738 -0.097516 -0.097517 0.000000
2.812000 0.010738 -0.097500 -0.059646 0.000000
2.814000 0.010738 -0.059647 0.147396 0.000000
2.816000 0.010738 0.147385 0.068117 0.000000
2.818000 0.010738 0.068122 0.068117 0.000000
2.820000 0.010738 0.067997 -0.022491 0.000000
2.822000 0.010738 -0.022488 -0.097766 0.000000
2.824000 0.010738 -0.097763 -0.028416 0.000000
2.826000 0.010738 -0.028421 0.088486 0.000000
2.828000 0.010738 0.088480 0.088486 0.000000
2.830000 0.010738 0.088403 0.166765 0.000000
2.832000 0.010738 0.166763 -0.047970 0.000000
2.834000 0.010738 -0.047958 -0.117863 0.000000
2.836000 0.010738 -0.117860 -0.117863 0.000000
2.838000 0.010738 -0.117826 -0.088383 0.000000
2.840000 0.010738 -0.088384 0.121667 0.000000
2.842000 0.010738 0.121656 0.114155 0.000000
2.844000 0.010738 0.114156 0.004985 0.000000
2.846000 0.010738 0.004991 0.004985 0.000000
2.848000 0.010738 0.004901 -0.074446 0.000000
2.850000 0.009204 -0.074444 -0.075526 0.000000
2.852000 0.009204 -0.075526 0.034222 0.000000
2.854000 0.009204 0.034216 0.034222 0.000000
2.856000 0.009204 0.034207 0.167297 0.000000
2.858000 0.009204 0.167293 0.084154 0.000000
2.860000 0.009204 0.084159 -0.095269 0.000000
2.862000 0.009204 -0.095259 -0.098213 0.000000
2.864000 0.009204 -0.098213 -0.098213 0.000000
2.866000 0.009204 -0.098181 -0.037169 0.000000
2.868000 0.009204 -0.037171 0.147592 0.000000
2.870000 0.009204 0.147582 0.035906 0.000000
2.872000 0.009204 0.035913 -0.055495 0.000000
2.874000 0.009204 -0.055490 -0.055495 0.000000
2.876000 0.009204 -0.055528 -0.098692 0.000000
2.878000 0.009204 -0.098691 0.005114 0.000000
2.880000 0.009204 0.005108 0.144095 0.000000
2.882000 0.009204 0.144088 0.144095 0.000000
2.884000 0.009204 0.143939 0.139272 0.000000
2.886000 0.009204 0.139273 -0.077679 0.000000
2.888000 0.009204 -0.077667 -0.110443 0.000000
2.890000 0.009204 -0.110441 -0.077005 0.000000
2.892000 0.009204 -0.077008 -0.077005 0.000000
2.894000 0.009204 -0.076951 0.056586 0.000000
2.896000 0.009204 0.056582 0.084796 0.000000
2.898000 0.009204 0.084795 -0.009907 0.000000
2.900000 0.009204 -0.009902 -0.009907 0.000000
2.902000 0.009204 -0.009975 -0.090445 0.000000
2.904000 0.009204 -0.090443 -0.034515 0.000000
2.906000 0.007670 -0.034519 0.086004 0.000000
2.908000 0.009204 0.085997 0.143961 0.000000
2.910000 0.009204 0.143958 0.143961 0.000000
2.912000 0.009204 0.143797 0.031774 0.000000
2.914000 0.007670 0.031778 -0.075990 0.000000
2.916000 0.007670 -0.075985 -0.075519 0.000000
2.918000 0.007670 -0.075519 -0.075519 0.000000
2.920000 0.007670 -0.075482 -0.002476 0.000000
2.922000 0.007670 -0.002479 0.128434 0.000000
2.924000 0.007670 0.128428 0.128434 0.000000
2.926000 0.007670 0.128317 0.015530 0.000000
2.928000 0.007670 0.015533 -0.067815 0.000000
2.930000 0.007670 -0.067811 -0.085978 0.000000
2.932000 0.007670 -0.085977 0.031946 0.000000
2.934000 0.007670 0.031940 0.110930 0.000000
2.936000 0.007670 0.110926 0.046990 0.000000
2.938000 0.007670 0.046993 0.046990 0.000000
2.940000 0.007670 0.046922 -0.038332 0.000000
2.942000 0.007670 -0.038330 -0.063195 0.000000
2.944000 0.007670 -0.063194 -0.027138 0.000000
2.946000 0.007670 -0.027139 -0.027138 0.000000
2.948000 0.007670 -0.027106 0.076016 0.000000
2.950000 0.007670 0.076014 0.035246 0.000000
2.952000 0.007670 0.035248 -0.047366 0.000000
2.954000 0.007670 -0.047361 -0.075707 0.000000
2.956000 0.007670 -0.075706 -0.075707 0.000000
2.958000 0.007670 -0.075686 -0.060809 0.000000
2.960000 0.007670 -0.060809 0.075517 0.000000
2.962000 0.007670 0.075510 0.051991 0.000000
2.964000 0.007670 0.051992 0.051991 0.000000
2.966000 0.007670 0.051918 -0.022175 0.000000
2.968000 0.007670 -0.022173 -0.050007 0.000000
2.970000 0.007670 -0.050007 -0.030716 0.000000
2.972000 0.007670 -0.030717 0.025056 0.000000
2.974000 0.007670 0.025053 0.025056 0.000000
2.976000 0.007670 0.025045 0.065442 0.000000
2.978000 0.007670 0.065441 -0.048467 0.000000
2.980000 0.007670 -0.048461 -0.047222 0.000000
2.982000 0.007670 -0.047223 -0.047222 0.000000
2.984000 0.007670 -0.047221 -0.044701 0.000000
2.986000 0.007670 -0.044701 0.039367 0.000000
2.988000 0.007670 0.039363 0.037196 0.000000
2.990000 0.007670 0.037196 0.000356 0.000000
2.992000 0.007670 0.000358 0.000356 0.000000
2.994000 0.007670 0.000315 -0.033233 0.000000
2.996000 0.007670 -0.033232 -0.017310 0.000000
2.998000 0.007670 -0.017311 0.001986 0.000000
3.000000 0.007670 0.001985 0.014347 0.000000
3.002000 0.007670 0.014346 0.014347 0.000000
3.004000 0.007670 0.014326 -0.038619 0.000000
3.006000 0.007670 -0.038617 -0.027156 0.000000
3.008000 0.007670 -0.027157 -0.035033 0.000000
3.010000 0.007670 -0.035033 -0.035033 0.000000
3.012000 0.007670 -0.035000 -0.000161 0.000000
3.014000 0.007670 -0.000162 0.011523 0.000000
3.016000 0.007670 0.011522 0.011523 0.000000
3.018000 0.007670 0.011508 -0.023477 0.000000
3.020000 0.007670 -0.023476 -0.009988 0.000000
3.022000 0.007670 -0.009989 -0.016038 0.000000
3.024000 0.007670 -0.016038 -0.012406 0.000000
3.026000 0.007670 -0.012406 -0.010974 0.000000
3.028000 0.007670 -0.010974 -0.010974 0.000000
3.030000 0.007670 -0.010968 -0.025226 0.000000
3.032000 0.007670 -0.025225 0.003168 0.000000
3.034000 0.007670 0.003166 0.008231 0.000000
3.036000 0.007670 0.008231 0.008231 0.000000
3.038000 0.007670 0.008220 0.007752 0.000000
3.040000 0.007670 0.007752 -0.026596 0.000000
3.042000 0.007670 -0.026594 -0.040537 0.000000
3.044000 0.007670 -0.040537 0.006760 0.000000
3.046000 0.007670 0.006758 0.006760 0.000000
3.048000 0.007670 0.006740 0.019261 0.000000
3.050000 0.007670 0.019261 -0.023117 0.000000
3.052000 0.007670 -0.023114 -0.047020 0.000000
3.054000 0.007670 -0.047019 -0.060256 0.000000
3.056000 0.007670 -0.060256 -0.060256 0.000000
3.058000 0.007670 -0.060192 -0.016473 0.000000
3.060000 0.007670 -0.016474 0.057514 0.000000
3.062000 0.007670 0.057510 0.024807 0.000000
3.064000 0.007670 0.024809 -0.026997 0.000000
3.066000 0.007670 -0.026995 -0.026997 0.000000
3.068000 0.007670 -0.026992 -0.055684 0.000000
3.070000 0.007670 -0.055684 0.016099 0.000000
3.072000 0.007670 0.016095 0.062120 0.000000
3.074000 0.007670 0.062118 0.062120 0.000000
3.076000 0.007670 0.062082 0.074925 0.000000
3.078000 0.007670 0.074925 -0.065434 0.000000
3.080000 0.007670 -0.065427 -0.075888 0.000000
3.082000 0.007670 -0.075888 -0.011252 0.000000
3.084000 0.007670 -0.011256 -0.011252 0.000000
3.086000 0.007670 -0.011228 0.116826 0.000000
3.088000 0.007670 0.116823 0.027029 0.000000
3.090000 0.007670 0.027035 -0.052380 0.000000
3.092000 0.007670 -0.052376 -0.052380 0.000000
3.094000 0.007670 -0.052350 -0.100697 0.000000
3.096000 0.007670 -0.100696 0.020475 0.000000
3.098000 0.007670 0.020468 0.117315 0.000000
3.100000 0.007670 0.117311 0.117315 0.000000
3.102000 0.007670 0.117235 0.101365 0.000000
3.104000 0.007670 0.101366 -0.010957 0.000000
3.106000 0.007670 -0.010951 -0.086332 0.000000
3.108000 0.007670 -0.086329 -0.029345 0.000000
3.110000 0.007670 -0.029349 -0.029345 0.000000
3.112000 0.007670 -0.029286 0.072412 0.000000
3.114000 0.009204 0.072410 0.026550 0.000000
3.116000 0.009204 0.026553 -0.064346 0.000000
3.118000 0.009204 -0.064341 -0.101670 0.000000
3.120000 0.009204 -0.101669 -0.101670 0.000000
3.122000 0.007670 -0.101603 -0.072940 0.000000
3.124000 0.007670 -0.072942 0.133495 0.000000
3.126000 0.009204 0.133484 0.122881 0.000000
3.128000 0.009204 0.122883 -0.038118 0.000000
3.130000 0.009204 -0.038109 -0.038118 0.000000
3.132000 0.009204 -0.038093 -0.101222 0.000000
3.134000 0.009204 -0.101221 -0.031956 0.000000
3.136000 0.009204 -0.031960 0.065627 0.000000
3.138000 0.009204 0.065622 0.065627 0.000000
3.140000 0.009204 0.065620 0.173957 0.000000
3.142000 0.009204 0.173955 -0.053472 0.000000
3.144000 0.009204 -0.053460 -0.113150 0.000000
3.146000 0.009204 -0.113147 -0.073857 0.000000
3.148000 0.009204 -0.073860 -0.073857 0.000000
3.150000 0.009204 -0.073790 0.165124 0.000000
3.152000 0.009204 0.165118 0.129055 0.000000
3.154000 0.009204 0.129058 0.129055 0.000000
3.156000 0.009204 0.128938 -0.033430 0.000000
3.158000 0.009204 -0.033426 -0.114972 0.000000
3.160000 0.009204 -0.114968 -0.044584 0.000000
3.162000 0.009204 -0.044589 0.057449 0.000000
3.164000 0.009204 0.057443 0.170502 0.000000
3.166000 0.009204 0.170497 0.170502 0.000000
3.168000 0.009204 0.170384 -0.048879 0.000000
3.170000 0.009204 -0.048872 -0.108229 0.000000
3.172000 0.009204 -0.108227 -0.071096 0.000000
3.174000 0.009204 -0.071099 -0.071096 0.000000
3.176000 0.009204 -0.071050 0.000059 0.000000
3.178000 0.009204 0.000057 0.135223 0.000000
3.180000 0.009204 0.135217 0.004872 0.000000
3.182000 0.009204 0.004879 -0.095258 0.000000
3.184000 0.009204 -0.095253 -0.095258 0.000000
3.186000 0.009204 -0.095233 -0.095632 0.000000
3.188000 0.009204 -0.095632 0.092567 0.000000
3.190000 0.009204 0.092557 0.200907 0.000000
3.192000 0.009204 0.200902 0.200907 0.000000
3.194000 0.009204 0.200742 0.061962 0.000000
3.196000 0.009204 0.061967 -0.128017 0.000000
3.198000 0.009204 -0.128007 -0.069529 0.000000
3.200000 0.009204 -0.069533 -0.013141 0.000000
3.202000 0.009204 -0.013144 -0.013141 0.000000
3.204000 0.009204 -0.013067 0.108879 0.000000
3.206000 0.009204 0.108876 0.019637 0.000000
3.208000 0.009204 0.019643 -0.076632 0.000000
3.210000 0.009204 -0.076627 -0.087975 0.000000
3.212000 0.009204 -0.087976 -0.087975 0.000000
3.214000 0.009204 -0.087936 0.063127 0.000000
3.216000 0.009204 0.063123 0.180280 0.000000
3.218000 0.010738 0.180275 0.069394 0.000000
3.220000 0.010738 0.069401 0.069394 0.000000
3.222000 0.010738 0.069354 -0.052049 0.000000
3.224000 0.010738 -0.052046 -0.071174 0.000000
3.226000 0.009204 -0.071174 -0.071174 0.000000
3.228000 0.009204 -0.071115 0.000759 0.000000
3.230000 0.010738 0.000757 0.139099 0.000000
3.232000 0.010738 0.139092 0.001987 0.000000
3.234000 0.010738 0.001995 -0.087719 0.000000
3.236000 0.010738 -0.087715 -0.095043 0.000000
3.238000 0.010738 -0.095043 -0.095043 0.000000
3.240000 0.010738 -0.095001 -0.060790 0.000000
3.242000 0.010738 -0.060791 0.155573 0.000000
3.244000 0.010738 0.155562 0.092374 0.000000
3.246000 0.010738 0.092379 0.092374 0.000000
3.248000 0.010738 0.092309 -0.045441 0.000000
3.250000 0.010738 -0.045437 -0.065873 0.000000
3.252000 0.010738 -0.065873 -0.022989 0.000000
3.254000 0.010738 -0.022991 0.101173 0.000000
3.256000 0.010738 0.101167 0.101173 0.000000
3.258000 0.010738 0.101145 0.149515 0.000000
3.260000 0.010738 0.149514 -0.067943 0.000000
3.262000 0.010738 -0.067931 -0.081168 0.000000
3.264000 0.010738 -0.081168 -0.063064 0.000000
3.266000 0.010738 -0.063065 -0.063064 0.000000
3.268000 0.010738 -0.062993 0.025307 0.000000
3.270000 0.010738 0.025304 0.096592 0.000000
3.272000 0.010738 0.096589 -0.050019 0.000000
3.274000 0.010738 -0.050011 -0.050019 0.000000
3.276000 0.010738 -0.049987 -0.069826 0.000000
3.278000 0.010738 -0.069826 -0.009779 0.000000
3.280000 0.010738 -0.009783 0.071359 0.000000
3.282000 0.010738 0.071354 0.071359 0.000000
3.284000 0.012272 0.071354 0.137329 0.000000
3.286000 0.010738 0.137328 0.003023 0.000000
3.288000 0.010738 0.003031 -0.076921 0.000000
3.290000 0.010738 -0.076917 -0.076921 0.000000
3.292000 0.010738 -0.076855 -0.065410 0.000000
3.294000 0.010738 -0.065411 -0.001298 0.000000
3.296000 0.012272 -0.001302 0.086398 0.000000
3.298000 0.012272 0.086394 0.007525 0.000000
3.300000 0.012272 0.007530 0.007525 0.000000
3.302000 0.012272 0.007489 -0.054401 0.000000
3.304000 0.012272 -0.054399 -0.064005 0.000000
3.306000 0.012272 -0.064005 0.042691 0.000000
3.308000 0.012272 0.042686 0.066828 0.000000
3.310000 0.012272 0.066827 -0.014902 0.000000
3.312000 0.012272 -0.014897 -0.014902 0.000000
3.314000 0.012272 -0.014879 -0.058294 0.000000
3.316000 0.012272 -0.058293 -0.029572 0.000000
3.318000 0.012272 -0.029574 0.007330 0.000000
3.320000 0.012272 0.007328 0.074627 0.000000
3.322000 0.012272 0.074624 0.074627 0.000000
3.324000 0.012272 0.074615 -0.018722 0.000000
3.326000 0.012272 -0.018719 -0.041376 0.000000
3.328000 0.012272 -0.041375 -0.041376 0.000000
3.330000 0.012272 -0.041362 -0.068276 0.000000
3.332000 0.012272 -0.068275 0.007648 0.000000
3.334000 0.012272 0.007644 0.050754 0.000000
3.336000 0.012272 0.050751 0.008014 0.000000
3.338000 0.012272 0.008016 -0.027996 0.000000
3.340000 0.012272 -0.027994 -0.027996 0.000000
3.342000 0.012272 -0.027990 -0.017428 0.000000
3.344000 0.012272 -0.017429 0.010012 0.000000
3.346000 0.012272 0.010011 0.010012 0.000000
3.348000 0.012272 0.010063 0.034601 0.000000
3.350000 0.012272 0.034600 0.012168 0.000000
3.352000 0.012272 0.012169 -0.016882 0.000000
3.354000 0.012272 -0.016881 -0.016882 0.000000
3.356000 0.012272 -0.016892 -0.033959 0.000000
3.358000 0.012272 -0.033959 -0.001784 0.000000
3.360000 0.012272 -0.001786 0.037056 0.000000
3.362000 0.012272 0.037054 0.011747 0.000000
3.364000 0.012272 0.011749 0.011747 0.000000
3.366000 0.012272 0.011755 -0.006112 0.000000
3.368000 0.013806 -0.006112 -0.012211 0.000000
3.370000 0.013806 -0.012211 -0.001958 0.000000
3.372000 0.013806 -0.001958 0.010339 0.000000
3.374000 0.013806 0.010338 -0.002890 0.000000
3.376000 0.013806 -0.002889 -0.002890 0.000000
3.378000 0.013806 -0.002883 0.005276 0.000000
3.380000 0.013806 0.005276 -0.001089 0.000000
3.382000 0.013806 -0.001088 -0.011180 0.000000
3.384000 0.013806 -0.011179 -0.005147 0.000000
3.386000 0.013806 -0.005147 -0.005147 0.000000
3.388000 0.013806 -0.005100 -0.001622 0.000000
3.390000 0.013806 -0.001622 0.011129 0.000000
3.392000 0.013806 0.011129 0.011129 0.000000
3.394000 0.013806 0.011117 -0.005395 0.000000
3.396000 0.013806 -0.005394 -0.015059 0.000000
3.398000 0.013806 -0.015058 -0.029662 0.000000
3.400000 0.013806 -0.029661 -0.035378 0.000000
3.402000 0.013806 -0.035378 -0.019885 0.000000
3.404000 0.013806 -0.019886 -0.019885 0.000000
3.406000 0.013806 -0.019830 0.027028 0.000000
3.408000 0.013806 0.027027 -0.009225 0.000000
3.410000 0.013806 -0.009223 -0.006797 0.000000
3.412000 0.013806 -0.006798 -0.006797 0.000000
3.414000 0.013806 -0.006782 -0.003105 0.000000
3.416000 0.013806 -0.003105 0.023632 0.000000
3.418000 0.013806 0.023631 0.003834 0.000000
3.420000 0.013806 0.003836 -0.012284 0.000000
3.422000 0.013806 -0.012283 -0.012284 0.000000
3.424000 0.013806 -0.012268 -0.041872 0.000000
3.426000 0.013806 -0.041871 -0.031707 0.000000
3.428000 0.013806 -0.031708 -0.031707 0.000000
3.430000 0.013806 -0.031659 0.014428 0.000000
3.432000 0.013806 0.014427 0.035379 0.000000
3.434000 0.015340 0.035379 -0.020576 0.000000
3.436000 0.015340 -0.020572 -0.043938 0.000000
3.438000 0.015340 -0.043937 -0.054350 0.000000
3.440000 0.015340 -0.054350 -0.054350 0.000000
3.442000 0.015340 -0.054287 0.032676 0.000000
3.444000 0.015340 0.032674 0.033250 0.000000
3.446000 0.015340 0.033251 -0.012077 0.000000
3.448000 0.015340 -0.012075 -0.025708 0.000000
3.450000 0.015340 -0.025708 -0.025708 0.000000
3.452000 0.015340 -0.025698 -0.003609 0.000000
3.454000 0.015340 -0.003610 0.051479 0.000000
3.456000 0.015340 0.051476 0.051479 0.000000
3.458000 0.015340 0.051450 0.051119 0.000000
3.460000 0.015340 0.051120 -0.034791 0.000000
3.462000 0.015340 -0.034787 -0.066854 0.000000
3.464000 0.015340 -0.066853 -0.050083 0.000000
3.466000 0.015340 -0.050084 0.028849 0.000000
3.468000 0.015340 0.028845 0.028849 0.000000
3.470000 0.015340 0.028849 0.069841 0.000000
3.472000 0.015340 0.069840 -0.017927 0.000000
3.474000 0.015340 -0.017922 -0.051271 0.000000
3.476000 0.015340 -0.051269 -0.051271 0.000000
3.478000 0.015340 -0.051241 0.016783 0.000000
3.480000 0.015340 0.016781 0.066931 0.000000
3.482000 0.015340 0.066929 0.075881 0.000000
3.484000 0.015340 0.075882 -0.007764 0.000000
3.486000 0.015340 -0.007760 -0.007764 0.000000
3.488000 0.015340 -0.007790 -0.075698 0.000000
3.490000 0.015340 -0.075697 -0.022345 0.000000
3.492000 0.015340 -0.022349 0.041187 0.000000
3.494000 0.015340 0.041184 0.089793 0.000000
3.496000 0.015340 0.089792 0.089793 0.000000
3.498000 0.015340 0.089721 -0.036184 0.000000
3.500000 0.015340 -0.036181 -0.036184 0.000000
3.502000 0.015340 -0.036194 -0.079479 0.000000
3.504000 0.015340 -0.079478 -0.047745 0.000000
3.506000 0.015340 -0.047748 0.085162 0.000000
3.508000 0.015340 0.085156 0.067178 0.000000
3.510000 0.015340 0.067180 0.067178 0.000000
3.512000 0.015340 0.067109 -0.027486 0.000000
3.514000 0.015340 -0.027483 -0.074253 0.000000
3.516000 0.015340 -0.074251 0.004463 0.000000
3.518000 0.015340 0.004458 0.087238 0.000000
3.520000 0.015340 0.087234 0.087238 0.000000
3.522000 0.015340 0.087181 0.125603 0.000000
3.524000 0.015340 0.125603 -0.040822 0.000000
3.526000 0.015340 -0.040814 -0.077115 0.000000
3.528000 0.015340 -0.077114 -0.077115 0.000000
3.530000 0.015340 -0.077102 -0.034518 0.000000
3.532000 0.015340 -0.034520 0.035755 0.000000
3.534000 0.015340 0.035751 0.039284 0.000000
3.536000 0.015340 0.039285 -0.053921 0.000000
3.538000 0.015340 -0.053916 -0.081827 0.000000
3.540000 0.015340 -0.081826 -0.081827 0.000000
3.542000 0.015340 -0.081813 0.048900 0.000000
3.544000 0.015340 0.048896 0.128620 0.000000
3.546000 0.015340 0.128617 0.111921 0.000000
3.548000 0.015340 0.111923 -0.036401 0.000000
3.550000 0.015340 -0.036393 -0.036401 0.000000
3.552000 0.015340 -0.036432 -0.082066 0.000000
3.554000 0.013806 -0.082065 -0.007023 0.000000
3.556000 0.013806 -0.007028 0.064427 0.000000
3.558000 0.015340 0.064424 0.028557 0.000000
3.560000 0.015340 0.028559 0.028557 0.000000
3.562000 0.015340 0.028480 -0.046212 0.000000
3.564000 0.015340 -0.046210 -0.082835 0.000000
3.566000 0.015340 -0.082834 -0.017585 0.000000
3.568000 0.013806 -0.017590 -0.017585 0.000000
3.570000 0.015340 -0.017583 0.124955 0.000000
3.572000 0.015340 0.124952 0.059700 0.000000
3.574000 0.015340 0.059704 -0.060884 0.000000
3.576000 0.015340 -0.060877 -0.060884 0.000000
3.578000 0.015340 -0.060922 -0.105425 0.000000
3.580000 0.013806 -0.105424 0.028124 0.000000
3.582000 0.013806 0.028116 0.099215 0.000000
3.584000 0.015340 0.099212 0.099215 0.000000
3.586000 0.015340 0.099163 0.121481 0.000000
3.588000 0.015340 0.121481 -0.088058 0.000000
3.590000 0.013806 -0.088047 -0.092892 0.000000
3.592000 0.013806 -0.092893 -0.022583 0.000000
3.594000 0.013806 -0.022588 -0.022583 0.000000
3.596000 0.013806 -0.022572 0.063674 0.000000
3.598000 0.015340 0.063672 0.018885 0.000000
3.600000 0.015340 0.018888 -0.086086 0.000000
3.602000 0.015340 -0.086080 -0.112318 0.000000
3.604000 0.013806 -0.112317 -0.112318 0.000000
3.606000 0.013806 -0.112292 0.062391 0.000000
3.608000 0.013806 0.062385 0.188222 0.000000
3.610000 0.015340 0.188216 0.188222 0.000000
3.612000 0.015340 0.188043 0.081076 0.000000
3.614000 0.015340 0.081080 -0.055906 0.000000
3.616000 0.013806 -0.055898 -0.074294 0.000000
3.618000 0.013806 -0.074294 0.000574 0.000000
3.620000 0.013806 0.000570 0.000574 0.000000
3.622000 0.013806 0.000582 0.104505 0.000000
3.624000 0.013806 0.104503 -0.021667 0.000000
3.626000 0.013806 -0.021659 -0.093338 0.000000
3.628000 0.013806 -0.093334 -0.093338 0.000000
3.630000 0.013806 -0.093346 -0.094484 0.000000
3.632000 0.013806 -0.094485 -0.014853 0.000000
3.634000 0.013806 -0.014858 0.204255 0.000000
3.636000 0.013806 0.204244 0.055996 0.000000
3.638000 0.013806 0.056005 -0.058196 0.000000
3.640000 0.013806 -0.058190 -0.058196 0.000000
3.642000 0.013806 -0.058252 -0.069173 0.000000
3.644000 0.013806 -0.069173 0.029694 0.000000
3.646000 0.013806 0.029689 0.183137 0.000000
3.648000 0.013806 0.183130 0.164753 0.000000
3.650000 0.013806 0.164755 0.164753 0.000000
3.652000 0.013806 0.164575 -0.117353 0.000000
3.654000 0.013806 -0.117346 -0.065276 0.000000
3.656000 0.013806 -0.065281 -0.065276 0.000000
3.658000 0.013806 -0.065288 0.001711 0.000000
3.660000 0.013806 0.001709 0.197588 0.000000
3.662000 0.013806 0.197578 0.004303 0.000000
3.664000 0.013806 0.004315 -0.096044 0.000000
3.666000 0.013806 -0.096039 -0.103068 0.000000
3.668000 0.013806 -0.103069 -0.103068 0.000000
3.670000 0.013806 -0.103061 0.057226 0.000000
3.672000 0.013806 0.057222 0.197062 0.000000
3.674000 0.013806 0.197055 0.141714 0.000000
3.676000 0.013806 0.141718 -0.020380 0.000000
3.678000 0.013806 -0.020371 -0.020380 0.000000
3.680000 0.013806 -0.020436 -0.075867 0.000000
3.682000 0.013806 -0.075866 -0.002114 0.000000
3.684000 0.013806 -0.002119 -0.002114 0.000000
3.686000 0.013806 -0.002121 0.147828 0.000000
3.688000 0.013806 0.147824 -0.033242 0.000000
3.690000 0.013806 -0.033231 -0.104918 0.000000
3.692000 0.013806 -0.104915 -0.104918 0.000000
3.694000 0.013806 -0.104911 -0.086441 0.000000
3.696000 0.013806 -0.086442 -0.026352 0.000000
3.698000 0.013806 -0.026357 0.159112 0.000000
3.700000 0.013806 0.159102 0.097416 0.000000
3.702000 0.013806 0.097421 -0.089291 0.000000
3.704000 0.013806 -0.089280 -0.062991 0.000000
3.706000 0.013806 -0.062993 -0.062991 0.000000
3.708000 0.013806 -0.062993 -0.023125 0.000000
3.710000 0.013806 -0.023126 0.109725 0.000000
3.712000 0.013806 0.109718 0.109725 0.000000
3.714000 0.013806 0.109689 0.126295 0.000000
3.716000 0.013806 0.126295 -0.063316 0.000000
3.718000 0.013806 -0.063306 -0.062794 0.000000
3.720000 0.013806 -0.062795 -0.062794 0.000000
3.722000 0.013806 -0.062838 -0.017845 0.000000
3.724000 0.013806 -0.017847 0.169714 0.000000
3.726000 0.013806 0.169706 0.041764 0.000000
3.728000 0.013806 0.041772 0.041764 0.000000
3.730000 0.013806 0.041727 -0.100481 0.000000
3.732000 0.013806 -0.100477 -0.098211 0.000000
3.734000 0.013806 -0.098212 -0.098211 0.000000
3.736000 0.013806 -0.098201 0.005278 0.000000
3.738000 0.015340 0.005275 0.093373 0.000000
3.740000 0.013806 0.093369 0.146362 0.000000
3.742000 0.013806 0.146360 -0.056494 0.000000
3.744000 0.013806 -0.056483 -0.051523 0.000000
3.746000 0.013806 -0.051524 -0.051523 0.000000
3.748000 0.013806 -0.051553 -0.023859 0.000000
3.750000 0.013806 -0.023860 0.090138 0.000000
3.752000 0.013806 0.090132 0.009945 0.000000
3.754000 0.013806 0.009951 0.009945 0.000000
3.756000 0.013806 0.009962 -0.053535 0.000000
3.758000 0.013806 -0.053534 -0.039056 0.000000
3.760000 0.013806 -0.039058 0.026724 0.000000
3.762000 0.013806 0.026721 0.098369 0.000000
3.764000 0.013806 0.098366 0.098369 0.000000
3.766000 0.013806 0.098330 0.062241 0.000000
3.768000 0.013806 0.062242 -0.028406 0.000000
3.770000 0.013806 -0.028401 -0.042869 0.000000
3.772000 0.013806 -0.042869 -0.042869 0.000000
3.774000 0.013806 -0.042882 -0.016021 0.000000
3.776000 0.015340 -0.016022 0.078879 0.000000
3.778000 0.015340 0.078875 0.031873 0.000000
3.780000 0.013806 0.031876 0.031873 0.000000
3.782000 0.013806 0.031854 -0.019938 0.000000
3.784000 0.013806 -0.019937 -0.012702 0.000000
3.786000 0.013806 -0.012702 -0.014220 0.000000
3.788000 0.015340 -0.014219 -0.014220 0.000000
3.790000 0.015340 -0.014192 0.031109 0.000000
3.792000 0.015340 0.031108 0.014902 0.000000
3.794000 0.015340 0.014903 -0.032666 0.000000
3.796000 0.015340 -0.032663 -0.022924 0.000000
3.798000 0.015340 -0.022925 -0.025143 0.000000
3.800000 0.015340 -0.025143 -0.025143 0.000000
3.802000 0.015340 -0.025075 0.002154 0.000000
3.804000 0.015340 0.002153 -0.006843 0.000000
3.806000 0.015340 -0.006843 0.017229 0.000000
3.808000 0.015340 0.017228 0.017229 0.000000
3.810000 0.015340 0.017172 -0.000327 0.000000
3.812000 0.015340 -0.000327 -0.006548 0.000000
3.814000 0.015340 -0.006548 -0.014430 0.000000
3.816000 0.015340 -0.014430 -0.006823 0.000000
3.818000 0.015340 -0.006823 -0.006823 0.000000
3.820000 0.015340 -0.006811 -0.011587 0.000000
3.822000 0.015340 -0.011587 0.025874 0.000000
3.824000 0.015340 0.025872 -0.004142 0.000000
3.826000 0.015340 -0.004140 -0.004142 0.000000
3.828000 0.015340 -0.004109 -0.021666 0.000000
3.830000 0.015340 -0.021666 0.009418 0.000000
3.832000 0.015340 0.009416 0.033019 0.000000
3.834000 0.015340 0.033018 0.033019 0.000000
3.836000 0.015340 0.032956 0.021541 0.000000
3.838000 0.015340 0.021542 -0.040564 0.000000
3.840000 0.015340 -0.040561 -0.055482 0.000000
3.842000 0.015340 -0.055482 -0.020042 0.000000
3.844000 0.015340 -0.020044 0.047868 0.000000
3.846000 0.015340 0.047865 0.047868 0.000000
3.848000 0.015340 0.047822 0.032144 0.000000
3.850000 0.015340 0.032144 -0.014546 0.000000
3.852000 0.015340 -0.014544 -0.014546 0.000000
3.854000 0.015340 -0.014541 -0.052881 0.000000
3.856000 0.015340 -0.052880 0.029184 0.000000
3.858000 0.015340 0.029180 0.055125 0.000000
3.860000 0.015340 0.055124 0.031889 0.000000
3.862000 0.015340 0.031890 0.031889 0.000000
3.864000 0.015340 0.031860 -0.036518 0.000000
3.866000 0.015340 -0.036516 -0.052705 0.000000
3.868000 0.015340 -0.052705 0.032463 0.000000
3.870000 0.015340 0.032458 0.032463 0.000000
3.872000 0.015340 0.032443 0.108689 0.000000
3.874000 0.015340 0.108688 0.117486 0.000000
3.876000 0.015340 0.117487 0.117486 0.000000
3.878000 0.015340 0.117353 -0.053683 0.000000
3.880000 0.015340 -0.053679 -0.080868 0.000000
3.882000 0.015340 -0.080867 -0.029800 0.000000
3.884000 0.015340 -0.029803 0.096277 0.000000
3.886000 0.015340 0.096271 0.044960 0.000000
3.888000 0.015340 0.044964 -0.034175 0.000000
3.890000 0.015340 -0.034171 -0.034175 0.000000
3.892000 0.015340 -0.034175 -0.080363 0.000000
3.894000 0.015340 -0.080362 0.044018 0.000000
3.896000 0.015340 0.044010 0.044018 0.000000
3.898000 0.016874 0.044001 0.101209 0.000000
3.900000 0.016874 0.101208 0.068281 0.000000
3.902000 0.015340 0.068284 -0.101938 0.000000
3.904000 0.015340 -0.101930 -0.101938 0.000000
3.906000 0.015340 -0.101890 -0.072925 0.000000
3.908000 0.015340 -0.072926 0.007357 0.000000
3.910000 0.015340 0.007352 0.086536 0.000000
3.912000 0.015340 0.086532 -0.001312 0.000000
3.914000 0.015340 -0.001306 -0.076288 0.000000
3.916000 0.015340 -0.076284 -0.076288 0.000000
3.918000 0.015340 -0.076273 -0.087618 0.000000
3.920000 0.015340 -0.087618 0.063095 0.000000
3.922000 0.015340 0.063086 0.063095 0.000000
3.924000 0.016874 0.063062 0.137802 0.000000
3.926000 0.016874 0.137801 0.031345 0.000000
3.928000 0.015340 0.031352 -0.081203 0.000000
3.930000 0.015340 -0.081197 -0.041003 0.000000
3.932000 0.015340 -0.041006 -0.041003 0.000000
3.934000 0.015340 -0.040966 0.031392 0.000000
3.936000 0.015340 0.031390 0.106313 0.000000
3.938000 0.016874 0.106311 -0.024100 0.000000
3.940000 0.016874 -0.024092 -0.024100 0.000000
3.942000 0.015340 -0.024154 -0.085875 0.000000
3.944000 0.015340 -0.085873 -0.057550 0.000000
3.946000 0.015340 -0.057553 0.004484 0.000000
3.948000 0.015340 0.004480 0.126173 0.000000
3.950000 0.015340 0.126168 0.126173 0.000000
3.952000 0.015340 0.126063 -0.018404 0.000000
3.954000 0.015340 -0.018399 -0.108848 0.000000
3.956000 0.015340 -0.108844 -0.092116 0.000000
3.958000 0.015340 -0.092118 -0.092116 0.000000
3.960000 0.015340 -0.092097 0.109171 0.000000
3.962000 0.016874 0.109165 0.163490 0.000000
3.964000 0.015340 0.163489 0.054209 0.000000
3.966000 0.015340 0.054216 -0.107985 0.000000
3.968000 0.015340 -0.107977 -0.045987 0.000000
3.970000 0.015340 -0.045992 0.046534 0.000000
3.972000 0.015340 0.046529 0.046534 0.000000
3.974000 0.015340 0.046530 0.138308 0.000000
3.976000 0.015340 0.138307 -0.021703 0.000000
3.978000 0.015340 -0.021694 -0.021703 0.000000
3.980000 0.015340 -0.021741 -0.084531 0.000000
3.982000 0.015340 -0.084529 -0.054302 0.000000
3.984000 0.015340 -0.054304 0.158931 0.000000
3.986000 0.015340 0.158919 0.189581 0.000000
3.988000 0.016874 0.189581 0.189581 0.000000
3.990000 0.015340 0.189381 -0.044093 0.000000
3.992000 0.015340 -0.044086 -0.133247 0.000000
3.994000 0.015340 -0.133243 -0.018479 0.000000
3.996000 0.015340 -0.018487 -0.018479 0.000000
3.998000 0.015340 -0.018470 0.093431 0.000000
4.000000 0.015340 0.093428 0.210343 0.000000
4.002000 0.015340 0.210338 -0.047237 0.000000
4.004000 0.015340 -0.047223 -0.114565 0.000000
4.006000 0.015340 -0.114562 -0.114565 0.000000
4.008000 0.015340 -0.114579 -0.055131 0.000000
4.010000 0.015340 -0.055133 0.017627 0.000000
4.012000 0.015340 0.017623 0.156676 0.000000
4.014000 0.015340 0.156671 0.156676 0.000000
4.016000 0.015340 0.156513 -0.062153 0.000000
4.018000 0.015340 -0.062147 -0.136831 0.000000
4.020000 0.015340 -0.136827 0.021779 0.000000
4.022000 0.015340 0.021769 0.109570 0.000000
4.024000 0.015340 0.109566 0.109570 0.000000
4.026000 0.015340 0.109529 0.204043 0.000000
4.028000 0.015340 0.204041 0.014137 0.000000
4.030000 0.015340 0.014149 -0.106170 0.000000
4.032000 0.015340 -0.106164 -0.106170 0.000000
4.034000 0.015340 -0.106203 -0.035909 0.000000
4.036000 0.015340 -0.035912 0.030064 0.000000
4.038000 0.015340 0.030061 0.097358 0.000000
4.040000 0.015340 0.097355 -0.026761 0.000000
4.042000 0.015340 -0.026754 -0.026761 0.000000
4.044000 0.015340 -0.026788 -0.096793 0.000000
4.046000 0.015340 -0.096791 -0.056022 0.000000
4.048000 0.015340 -0.056025 0.181763 0.000000
4.050000 0.015340 0.181752 0.190404 0.000000
4.052000 0.015340 0.190405 -0.047135 0.000000
4.054000 0.015340 -0.047122 -0.047135 0.000000
4.056000 0.015340 -0.047147 -0.133784 0.000000
4.058000 0.015340 -0.133782 -0.025757 0.000000
4.060000 0.013806 -0.025765 -0.025757 0.000000
4.062000 0.015340 -0.025755 0.040387 0.000000
4.064000 0.015340 0.040385 0.157874 0.000000
4.066000 0.015340 0.157868 -0.058543 0.000000
4.068000 0.015340 -0.058530 -0.058543 0.000000
4.070000 0.015340 -0.058557 -0.054666 0.000000
4.072000 0.015340 -0.054667 -0.034515 0.000000
4.074000 0.015340 -0.034516 0.010476 0.000000
4.076000 0.015340 0.010474 0.106931 0.000000
4.078000 0.015340 0.106926 0.106931 0.000000
4.080000 0.015340 0.106859 -0.032149 0.000000
4.082000 0.015340 -0.032145 -0.097046 0.000000
4.084000 0.013806 -0.097043 -0.009100 0.000000
4.086000 0.013806 -0.009106 0.104554 0.000000
4.088000 0.015340 0.104549 0.223297 0.000000
4.090000 0.015340 0.223292 0.223297 0.000000
4.092000 0.015340 0.223081 0.070030 0.000000
4.094000 0.015340 0.070035 -0.089116 0.000000
4.096000 0.015340 -0.089108 -0.051917 0.000000
4.098000 0.015340 -0.051920 -0.051917 0.000000
4.100000 0.015340 -0.051954 -0.016918 0.000000
4.102000 0.015340 -0.016919 0.088306 0.000000
4.104000 0.015340 0.088301 -0.049013 0.000000
4.106000 0.015340 -0.049005 -0.049013 0.000000
4.108000 0.013806 -0.049003 -0.050825 0.000000
4.110000 0.013806 -0.050826 -0.036086 0.000000
4.112000 0.013806 -0.036088 0.045223 0.000000
4.114000 0.013806 0.045219 0.045223 0.000000
4.116000 0.013806 0.045203 0.114670 0.000000
4.118000 0.013806 0.114668 0.029408 0.000000
4.120000 0.013806 0.029413 -0.058634 0.000000
4.122000 0.013806 -0.058630 -0.038312 0.000000
4.124000 0.013806 -0.038313 -0.038312 0.000000
4.126000 0.013806 -0.038344 0.007179 0.000000
4.128000 0.015340 0.007178 0.118050 0.000000
4.130000 0.015340 0.118045 -0.040859 0.000000
4.132000 0.013806 -0.040851 -0.040859 0.000000
4.134000 0.013806 -0.040876 -0.030004 0.000000
4.136000 0.013806 -0.030004 -0.011171 0.000000
4.138000 0.013806 -0.011172 0.005134 0.000000
4.140000 0.013806 0.005133 0.068594 0.000000
4.142000 0.013806 0.068591 -0.020124 0.000000
4.144000 0.013806 -0.020119 -0.020124 0.000000
4.146000 0.013806 -0.020178 -0.035232 0.000000
4.148000 0.013806 -0.035232 -0.019876 0.000000
4.150000 0.013806 -0.019877 -0.019178 0.000000
4.152000 0.013806 -0.019178 -0.019178 0.000000
4.154000 0.013806 -0.019145 0.025198 0.000000
4.156000 0.013806 0.025197 0.040404 0.000000
4.158000 0.013806 0.040404 -0.012888 0.000000
4.160000 0.013806 -0.012885 -0.012888 0.000000
4.162000 0.013806 -0.012976 0.000250 0.000000
4.164000 0.013806 0.000249 -0.012025 0.000000
4.166000 0.013806 -0.012025 0.000636 0.000000
4.168000 0.013806 0.000636 -0.031186 0.000000
4.170000 0.013806 -0.031185 -0.031186 0.000000
4.172000 0.013806 -0.031190 0.006390 0.000000
4.174000 0.013806 0.006389 0.017929 0.000000
4.176000 0.013806 0.017929 0.005353 0.000000
4.178000 0.013806 0.005353 0.012716 0.000000
4.180000 0.013806 0.012716 0.012716 0.000000
4.182000 0.013806 0.012679 0.030226 0.000000
4.184000 0.013806 0.030226 0.023524 0.000000
4.186000 0.013806 0.023525 -0.006681 0.000000
4.188000 0.013806 -0.006679 -0.064239 0.000000
4.190000 0.013806 -0.064236 -0.064239 0.000000
4.192000 0.013806 -0.064220 -0.082478 0.000000
4.194000 0.013806 -0.082478 0.030251 0.000000
4.196000 0.013806 0.030244 0.062298 0.000000
4.198000 0.013806 0.062297 0.048338 0.000000
4.200000 0.013806 0.048339 0.048338 0.000000
4.202000 0.013806 0.048247 -0.054492 0.000000
4.204000 0.013806 -0.054490 -0.060147 0.000000
4.206000 0.013806 -0.060147 -0.060147 0.000000
4.208000 0.012272 -0.060130 -0.003936 0.000000
4.210000 0.012272 -0.003938 0.042641 0.000000
4.212000 0.012272 0.042639 -0.014160 0.000000
4.214000 0.012272 -0.014156 -0.014160 0.000000
4.216000 0.012272 -0.014203 -0.070511 0.000000
4.218000 0.012272 -0.070510 -0.065050 0.000000
4.220000 0.012272 -0.065052 0.000762 0.000000
4.222000 0.012272 0.000758 0.124829 0.000000
4.224000 0.012272 0.124823 0.124829 0.000000
4.226000 0.012272 0.124683 0.036275 0.000000
4.228000 0.012272 0.036278 -0.067781 0.000000
4.230000 0.012272 -0.067775 -0.057956 0.000000
4.232000 0.012272 -0.057958 0.039706 0.000000
4.234000 0.012272 0.039701 0.039706 0.000000
4.236000 0.012272 0.039632 0.122482 0.000000
4.238000 0.012272 0.122480 0.060287 0.000000
4.240000 0.012272 0.060291 -0.087943 0.000000
4.242000 0.012272 -0.087936 -0.087943 0.000000
4.244000 0.012272 -0.087931 -0.061849 0.000000
4.246000 0.012272 -0.061850 0.035519 0.000000
4.248000 0.012272 0.035514 0.142173 0.000000
4.250000 0.012272 0.142169 -0.019030 0.000000
4.252000 0.012272 -0.019021 -0.120064 0.000000
4.254000 0.012272 -0.120060 -0.120064 0.000000
4.256000 0.010738 -0.120075 -0.119425 0.000000
4.258000 0.010738 -0.119426 0.081786 0.000000
4.260000 0.012272 0.081775 0.081786 0.000000
4.262000 0.012272 0.081736 0.176235 0.000000
4.264000 0.012272 0.176233 0.011472 0.000000
4.266000 0.012272 0.011482 -0.103365 0.000000
4.268000 0.012272 -0.103360 -0.028289 0.000000
4.270000 0.010738 -0.028294 -0.028289 0.000000
4.272000 0.010738 -0.028323 0.067093 0.000000
4.274000 0.012272 0.067090 0.139416 0.000000
4.276000 0.012272 0.139413 -0.052167 0.000000
4.278000 0.010738 -0.052156 -0.139774 0.000000
4.280000 0.010738 -0.139770 -0.139774 0.000000
4.282000 0.010738 -0.139763 -0.070442 0.000000
4.284000 0.010738 -0.070445 0.153866 0.000000
4.286000 0.010738 0.153855 0.188736 0.000000
4.288000 0.012272 0.188736 0.188736 0.000000
4.290000 0.010738 0.188535 -0.004453 0.000000
4.292000 0.010738 -0.004447 -0.111562 0.000000
4.294000 0.010738 -0.111557 -0.013192 0.000000
4.296000 0.010738 -0.013198 0.080785 0.000000
4.298000 0.010738 0.080781 0.080785 0.000000
4.300000 0.010738 0.080712 0.121042 0.000000
4.302000 0.010738 0.121042 0.027974 0.000000
4.304000 0.010738 0.027980 -0.104357 0.000000
4.306000 0.010738 -0.104351 -0.104357 0.000000
4.308000 0.010738 -0.104379 -0.036847 0.000000
4.310000 0.010738 -0.036849 0.049620 0.000000
4.312000 0.010738 0.049615 0.168851 0.000000
4.314000 0.010738 0.168845 -0.034327 0.000000
4.316000 0.010738 -0.034315 -0.034327 0.000000
4.318000 0.009204 -0.034386 -0.106465 0.000000
4.320000 0.009204 -0.106464 -0.062019 0.000000
4.322000 0.010738 -0.062022 0.078329 0.000000
4.324000 0.010738 0.078322 0.078329 0.000000
4.326000 0.010738 0.078283 0.120645 0.000000
4.328000 0.010738 0.120644 -0.005255 0.000000
4.330000 0.010738 -0.005248 -0.038955 0.000000
4.332000 0.010738 -0.038955 0.005896 0.000000
4.334000 0.010738 0.005893 0.005896 0.000000
4.336000 0.010738 0.005820 0.061402 0.000000
4.338000 0.010738 0.061400 0.163881 0.000000
4.340000 0.010738 0.163877 -0.087765 0.000000
4.342000 0.010738 -0.087752 -0.087765 0.000000
4.344000 0.009204 -0.087793 -0.071419 0.000000
4.346000 0.009204 -0.071420 -0.041644 0.000000
4.348000 0.010738 -0.041647 0.077578 0.000000
4.350000 0.010738 0.077572 0.101398 0.000000
4.352000 0.010738 0.101398 0.101398 0.000000
4.354000 0.009204 0.101310 -0.038877 0.000000
4.356000 0.009204 -0.038873 -0.038158 0.000000
4.358000 0.009204 -0.038159 -0.006056 0.000000
4.360000 0.009204 -0.006058 0.009984 0.000000
4.362000 0.009204 0.009983 0.009984 0.000000
4.364000 0.009204 0.009970 0.018251 0.000000
4.366000 0.009204 0.018251 -0.026033 0.000000
4.368000 0.009204 -0.026031 -0.035032 0.000000
4.370000 0.009204 -0.035032 -0.011057 0.000000
4.372000 0.009204 -0.011059 -0.012746 0.000000
4.374000 0.009204 -0.012746 -0.012746 0.000000
4.376000 0.009204 -0.012720 0.056685 0.000000
4.378000 0.009204 0.056683 0.004985 0.000000
4.380000 0.009204 0.004987 0.004985 0.000000
4.382000 0.009204 0.004893 -0.021040 0.000000
4.384000 0.009204 -0.021040 -0.001966 0.000000
4.386000 0.009204 -0.001967 -0.022281 0.000000
4.388000 0.009204 -0.022279 -0.016985 0.000000
4.390000 0.009204 -0.016986 -0.016985 0.000000
4.392000 0.009204 -0.017000 -0.014939 0.000000
4.394000 0.009204 -0.014940 0.014503 0.000000
4.396000 0.009204 0.014502 -0.025193 0.000000
4.398000 0.009204 -0.025191 -0.025193 0.000000
4.400000 0.009204 -0.025207 -0.059282 0.000000
4.402000 0.009204 -0.059281 -0.039265 0.000000
4.404000 0.009204 -0.039267 0.053643 0.000000
4.406000 0.009204 0.053638 0.053643 0.000000
4.408000 0.009204 0.053511 0.037976 0.000000
4.410000 0.009204 0.037977 -0.025212 0.000000
4.412000 0.009204 -0.025209 -0.094046 0.000000
4.414000 0.009204 -0.094043 -0.031236 0.000000
4.416000 0.007670 -0.031240 -0.031236 0.000000
4.418000 0.007670 -0.031216 0.048724 0.000000
4.420000 0.007670 0.048722 0.095445 0.000000
4.422000 0.009204 0.095443 -0.034429 0.000000
4.424000 0.009204 -0.034421 -0.075154 0.000000
4.426000 0.007670 -0.075152 -0.044609 0.000000
4.428000 0.007670 -0.044612 -0.044609 0.000000
4.430000 0.007670 -0.044614 0.110877 0.000000
4.432000 0.007670 0.110873 0.054875 0.000000
4.434000 0.007670 0.054879 0.054875 0.000000
4.436000 0.007670 0.054781 -0.036259 0.000000
4.438000 0.007670 -0.036256 -0.107382 0.000000
4.440000 0.007670 -0.107378 0.025137 0.000000
4.442000 0.007670 0.025128 0.142225 0.000000
4.444000 0.007670 0.142219 0.142225 0.000000
4.446000 0.007670 0.142061 0.147612 0.000000
4.448000 0.007670 0.147613 -0.104616 0.000000
4.450000 0.007670 -0.104603 -0.113524 0.000000
4.452000 0.007670 -0.113524 -0.113524 0.000000
4.454000 0.007670 -0.113511 -0.045757 0.000000
4.456000 0.007670 -0.045760 0.065698 0.000000
4.458000 0.007670 0.065692 0.041858 0.000000
4.460000 0.007670 0.041860 -0.074600 0.000000
4.462000 0.007670 -0.074595 -0.074600 0.000000
4.464000 0.007670 -0.074605 -0.104860 0.000000
4.466000 0.007670 -0.104860 -0.054495 0.000000
4.468000 0.007670 -0.054498 0.175984 0.000000
4.470000 0.007670 0.175972 0.175984 0.000000
4.472000 0.007670 0.175818 0.132056 0.000000
4.474000 0.007670 0.132058 -0.070072 0.000000
4.476000 0.007670 -0.070061 -0.072533 0.000000
4.478000 0.006136 -0.072534 0.007736 0.000000
4.480000 0.007670 0.007731 0.102157 0.000000
4.482000 0.007670 0.102152 0.187524 0.000000
4.484000 0.007670 0.187520 0.187524 0.000000
4.486000 0.007670 0.187339 -0.092251 0.000000
4.488000 0.006136 -0.092244 -0.063939 0.000000
4.490000 0.006136 -0.063942 -0.063939 0.000000
4.492000 0.006136 -0.064014 -0.026367 0.000000
4.494000 0.007670 -0.026368 0.155772 0.000000
4.496000 0.007670 0.155763 0.050322 0.000000
4.498000 0.007670 0.050329 0.050322 0.000000
4.500000 0.007670 0.050226 -0.123479 0.000000
4.502000 0.006136 -0.123475 -0.105405 0.000000
4.504000 0.006136 -0.105407 0.028711 0.000000
4.506000 0.007670 0.028703 0.089840 0.000000
4.508000 0.007670 0.089837 0.089840 0.000000
4.510000 0.007670 0.089813 0.138978 0.000000
4.512000 0.006136 0.138978 -0.084655 0.000000
4.514000 0.006136 -0.084642 -0.069350 0.000000
4.516000 0.006136 -0.069351 -0.069350 0.000000
4.518000 0.006136 -0.069397 -0.010592 0.000000
4.520000 0.006136 -0.010594 0.013265 0.000000
4.522000 0.006136 0.013264 0.014748 0.000000
4.524000 0.006136 0.014748 -0.073314 0.000000
4.526000 0.006136 -0.073310 -0.073314 0.000000
4.528000 0.006136 -0.073325 -0.037550 0.000000
4.530000 0.006136 -0.037552 0.024616 0.000000
4.532000 0.006136 0.024612 0.101119 0.000000
4.534000 0.007670 0.101116 0.055088 0.000000
4.536000 0.006136 0.055091 0.055088 0.000000
4.538000 0.006136 0.055022 -0.077633 0.000000
4.540000 0.006136 -0.077629 -0.033941 0.000000
4.542000 0.006136 -0.033944 -0.031924 0.000000
4.544000 0.006136 -0.031924 -0.031924 0.000000
4.546000 0.006136 -0.031904 0.004428 0.000000
4.548000 0.006136 0.004427 0.022566 0.000000
4.550000 0.006136 0.022565 0.000114 0.000000
4.552000 0.006136 0.000115 0.011761 0.000000
4.554000 0.006136 0.011760 -0.025876 0.000000
4.556000 0.006136 -0.025874 -0.025876 0.000000
4.558000 0.006136 -0.025898 -0.019819 0.000000
4.560000 0.006136 -0.019819 -0.021046 0.000000
4.562000 0.006136 -0.021047 -0.021046 0.000000
4.564000 0.006136 -0.021051 -0.011063 0.000000
4.566000 0.006136 -0.011064 -0.026781 0.000000
4.568000 0.006136 -0.026780 -0.045013 0.000000
4.570000 0.006136 -0.045012 -0.046274 0.000000
4.572000 0.006136 -0.046274 -0.046274 0.000000
4.574000 0.006136 -0.046202 -0.010326 0.000000
4.576000 0.006136 -0.010327 0.049665 0.000000
4.578000 0.006136 0.049661 0.042083 0.000000
4.580000 0.006136 0.042084 0.042083 0.000000
4.582000 0.006136 0.041990 -0.020831 0.000000
4.584000 0.006136 -0.020830 -0.068261 0.000000
4.586000 0.006136 -0.068258 0.016411 0.000000
4.588000 0.006136 0.016406 0.064741 0.000000
4.590000 0.006136 0.064739 0.064741 0.000000
4.592000 0.006136 0.064651 0.055149 0.000000
4.594000 0.006136 0.055150 -0.063630 0.000000
4.596000 0.006136 -0.063623 -0.065009 0.000000
4.598000 0.006136 -0.065009 0.012579 0.000000
4.600000 0.006136 0.012574 0.012579 0.000000
4.602000 0.006136 0.012531 0.095146 0.000000
4.604000 0.006136 0.095144 0.007414 0.000000
4.606000 0.006136 0.007420 -0.091255 0.000000
4.608000 0.006136 -0.091250 -0.091255 0.000000
4.610000 0.006136 -0.091233 -0.117020 0.000000
4.612000 0.006136 -0.117020 0.055395 0.000000
4.614000 0.006136 0.055385 0.154943 0.000000
4.616000 0.006136 0.154938 0.078803 0.000000
4.618000 0.006136 0.078808 0.078803 0.000000
4.620000 0.006136 0.078729 -0.038068 0.000000
4.622000 0.004602 -0.038065 -0.066310 0.000000
4.624000 0.004602 -0.066309 0.031577 0.000000
4.626000 0.004602 0.031571 0.031577 0.000000
4.628000 0.006136 0.031542 0.135956 0.000000
4.630000 0.006136 0.135954 0.137955 0.000000
4.632000 0.006136 0.137957 -0.129468 0.000000
4.634000 0.004602 -0.129454 -0.094597 0.000000
4.636000 0.004602 -0.094600 -0.094597 0.000000
4.638000 0.004602 -0.094570 -0.012943 0.000000
4.640000 0.006136 -0.012946 0.203475 0.000000
4.642000 0.006136 0.203465 0.049124 0.000000
4.644000 0.006136 0.049133 0.049124 0.000000
4.646000 0.006136 0.049053 -0.074314 0.000000
4.648000 0.004602 -0.074311 -0.102295 0.000000
4.650000 0.004602 -0.102294 0.037536 0.000000
4.652000 0.004602 0.037527 0.156445 0.000000
4.654000 0.006136 0.156440 0.156445 0.000000
4.656000 0.006136 0.156310 0.091489 0.000000
4.658000 0.004602 0.091491 -0.133694 0.000000
4.660000 0.004602 -0.133682 -0.075399 0.000000
4.662000 0.004602 -0.075403 0.015436 0.000000
4.664000 0.004602 0.015431 0.015436 0.000000
4.666000 0.006136 0.015428 0.093741 0.000000
4.668000 0.006136 0.093739 -0.014880 0.000000
4.670000 0.004602 -0.014873 -0.124877 0.000000
4.672000 0.004602 -0.124872 -0.124877 0.000000
4.674000 0.004602 -0.124878 -0.091281 0.000000
4.676000 0.004602 -0.091283 0.039322 0.000000
4.678000 0.004602 0.039315 0.136348 0.000000
4.680000 0.004602 0.136344 0.053681 0.000000
4.682000 0.004602 0.053686 0.053681 0.000000
4.684000 0.004602 0.053630 -0.081075 0.000000
4.686000 0.004602 -0.081072 -0.041972 0.000000
4.688000 0.004602 -0.041975 0.036233 0.000000
4.690000 0.004602 0.036229 0.036233 0.000000
4.692000 0.006136 0.036220 0.103665 0.000000
4.694000 0.004602 0.103664 -0.068859 0.000000
4.696000 0.004602 -0.068849 -0.100379 0.000000
4.698000 0.004602 -0.100378 -0.066721 0.000000
4.700000 0.004602 -0.066723 -0.066721 0.000000
4.702000 0.004602 -0.066749 -0.003939 0.000000
4.704000 0.004602 -0.003941 0.078559 0.000000
4.706000 0.004602 0.078556 0.011225 0.000000
4.708000 0.004602 0.011229 0.011225 0.000000
4.710000 0.004602 0.011190 -0.059886 0.000000
4.712000 0.004602 -0.059884 -0.042556 0.000000
4.714000 0.004602 -0.042558 -0.005984 0.000000
4.716000 0.004602 -0.005986 0.030466 0.000000
4.718000 0.004602 0.030464 0.016371 0.000000
4.720000 0.004602 0.016372 0.016371 0.000000
4.722000 0.004602 0.016366 -0.047646 0.000000
4.724000 0.004602 -0.047645 -0.028425 0.000000
4.726000 0.004602 -0.028426 -0.017395 0.000000
4.728000 0.004602 -0.017395 -0.017395 0.000000
4.730000 0.004602 -0.017358 0.028125 0.000000
4.732000 0.004602 0.028124 -0.011472 0.000000
4.734000 0.004602 -0.011470 -0.002932 0.000000
4.736000 0.004602 -0.002933 -0.002932 0.000000
4.738000 0.004602 -0.003017 0.012874 0.000000
4.740000 0.004602 0.012874 -0.030991 0.000000
4.742000 0.004602 -0.030988 -0.010395 0.000000
4.744000 0.004602 -0.010396 -0.007800 0.000000
4.746000 0.004602 -0.007800 -0.007800 0.000000
4.748000 0.004602 -0.007813 0.013675 0.000000
4.750000 0.004602 0.013675 -0.015672 0.000000
4.752000 0.004602 -0.015670 -0.038544 0.000000
4.754000 0.004602 -0.038542 -0.038544 0.000000
4.756000 0.004602 -0.038509 -0.034488 0.000000
4.758000 0.004602 -0.034488 0.017476 0.000000
4.760000 0.004602 0.017472 0.022015 0.000000
4.762000 0.004602 0.022015 -0.000967 0.000000
4.764000 0.004602 -0.000965 -0.000967 0.000000
4.766000 0.004602 -0.001009 -0.035478 0.000000
4.768000 0.004602 -0.035477 -0.045327 0.000000
4.770000 0.004602 -0.045326 0.032290 0.000000
4.772000 0.004602 0.032286 0.032290 0.000000
4.774000 0.004602 0.032247 0.072891 0.000000
4.776000 0.004602 0.072890 -0.013743 0.000000
4.778000 0.004602 -0.013738 -0.078933 0.000000
4.780000 0.004602 -0.078930 -0.064096 0.000000
4.782000 0.004602 -0.064098 0.029078 0.000000
4.784000 0.004602 0.029072 0.029078 0.000000
4.786000 0.004602 0.029022 0.105253 0.000000
4.788000 0.004602 0.105251 -0.009660 0.000000
4.790000 0.004602 -0.009653 -0.009660 0.000000
4.792000 0.004602 -0.009684 -0.100561 0.000000
4.794000 0.004602 -0.100558 -0.016580 0.000000
4.796000 0.004602 -0.016586 0.080986 0.000000
4.798000 0.004602 0.080981 0.166014 0.000000
4.800000 0.004602 0.166010 0.166014 0.000000
4.802000 0.004602 0.165843 0.052210 0.000000
4.804000 0.004602 0.052213 -0.118823 0.000000
4.806000 0.003068 -0.118814 -0.068998 0.000000
4.808000 0.003068 -0.069001 0.020845 0.000000
4.810000 0.004602 0.020840 0.020845 0.000000
4.812000 0.004602 0.020833 0.137648 0.000000
4.814000 0.004602 0.137645 -0.061510 0.000000
4.816000 0.004602 -0.061499 -0.132252 0.000000
4.818000 0.003068 -0.132250 -0.132252 0.000000
4.820000 0.003068 -0.132206 -0.075239 0.000000
4.822000 0.003068 -0.075241 0.126982 0.000000
4.824000 0.004602 0.126971 0.176158 0.000000
4.826000 0.004602 0.176157 -0.004769 0.000000
4.828000 0.004602 -0.004758 -0.004769 0.000000
4.830000 0.003068 -0.004802 -0.127116 0.000000
4.832000 0.003068 -0.127113 -0.051248 0.000000
4.834000 0.003068 -0.051254 0.068488 0.000000
4.836000 0.004602 0.068482 0.178289 0.000000
4.838000 0.004602 0.178284 0.178289 0.000000
4.840000 0.004602 0.178134 -0.086961 0.000000
4.842000 0.003068 -0.086954 -0.119689 0.000000
4.844000 0.003068 -0.119688 -0.063154 0.000000
4.846000 0.003068 -0.063158 -0.063154 0.000000
4.848000 0.003068 -0.063162 0.027232 0.000000
4.850000 0.004602 0.027229 0.139118 0.000000
4.852000 0.003068 0.139113 -0.066043 0.000000
4.854000 0.003068 -0.066032 -0.066043 0.000000
4.856000 0.003068 -0.066051 -0.130631 0.000000
4.858000 0.003068 -0.130629 -0.002258 0.000000
4.860000 0.003068 -0.002266 0.049376 0.000000
4.862000 0.003068 0.049374 0.150270 0.000000
4.864000 0.003068 0.150266 0.150270 0.000000
4.866000 0.003068 0.150161 0.034703 0.000000
4.868000 0.003068 0.034707 -0.084225 0.000000
4.870000 0.003068 -0.084220 -0.041249 0.000000
4.872000 0.003068 -0.041252 -0.041249 0.000000
4.874000 0.003068 -0.041283 0.017143 0.000000
4.876000 0.003068 0.017141 0.072090 0.000000
4.878000 0.003068 0.072089 -0.070523 0.000000
4.880000 0.003068 -0.070515 -0.069604 0.000000
4.882000 0.003068 -0.069605 -0.069604 0.000000
4.884000 0.003068 -0.069642 -0.047077 0.000000
4.886000 0.003068 -0.047078 0.064885 0.000000
4.888000 0.003068 0.064879 0.095572 0.000000
4.890000 0.003068 0.095571 0.004241 0.000000
4.892000 0.003068 0.004246 -0.063155 0.000000
4.894000 0.003068 -0.063151 -0.063155 0.000000
4.896000 0.003068 -0.063212 -0.020107 0.000000
4.898000 0.003068 -0.020108 -0.002328 0.000000
4.900000 0.003068 -0.002329 -0.002328 0.000000
4.902000 0.003068 -0.002283 0.029511 0.000000
4.904000 0.003068 0.029510 -0.020063 0.000000
4.906000 0.003068 -0.020061 -0.011361 0.000000
4.908000 0.003068 -0.011361 -0.009225 0.000000
4.910000 0.003068 -0.009225 -0.009225 0.000000
4.912000 0.003068 -0.009269 -0.006794 0.000000
4.914000 0.003068 -0.006794 0.025355 0.000000
4.916000 0.003068 0.025353 -0.049446 0.000000
4.918000 0.003068 -0.049442 -0.049446 0.000000
4.920000 0.003068 -0.049455 -0.032946 0.000000
4.922000 0.003068 -0.032947 -0.023381 0.000000
4.924000 0.003068 -0.023381 -0.022606 0.000000
4.926000 0.003068 -0.022606 0.000761 0.000000
4.928000 0.003068 0.000759 0.000761 0.000000
4.930000 0.003068 0.000781 0.004403 0.000000
4.932000 0.003068 0.004403 0.047799 0.000000
4.934000 0.003068 0.047796 0.002514 0.000000
4.936000 0.003068 0.002517 -0.059277 0.000000
4.938000 0.003068 -0.059274 -0.059277 0.000000
4.940000 0.003068 -0.059224 -0.050564 0.000000
4.942000 0.003068 -0.050564 0.017797 0.000000
4.944000 0.003068 0.017793 0.044382 0.000000
4.946000 0.003068 0.044381 0.044382 0.000000
4.948000 0.003068 0.044317 0.027760 0.000000
4.950000 0.003068 0.027761 -0.066047 0.000000
4.952000 0.003068 -0.066042 -0.050279 0.000000
4.954000 0.003068 -0.050281 0.018570 0.000000
4.956000 0.003068 0.018566 0.018570 0.000000
4.958000 0.003068 0.018534 0.078220 0.000000
4.960000 0.003068 0.078219 -0.010661 0.000000
4.962000 0.003068 -0.010655 -0.096855 0.000000
4.964000 0.003068 -0.096851 -0.096855 0.000000
4.966000 0.003068 -0.096808 -0.109039 0.000000
4.968000 0.003068 -0.109039 0.069171 0.000000
4.970000 0.003068 0.069160 0.140846 0.000000
4.972000 0.003068 0.140843 0.041533 0.000000
4.974000 0.003068 0.041540 0.041533 0.000000
4.976000 0.003068 0.041510 -0.072532 0.000000
4.978000 0.003068 -0.072529 -0.056562 0.000000
4.980000 0.003068 -0.056564 0.032306 0.000000
4.982000 0.003068 0.032301 0.032306 0.000000
4.984000 0.004602 0.032282 0.150542 0.000000
4.986000 0.004602 0.150539 -0.044108 0.000000
4.988000 0.004602 -0.044096 -0.112195 0.000000
4.990000 0.003068 -0.112192 -0.089812 0.000000
4.992000 0.003068 -0.089814 -0.089812 0.000000
4.994000 0.003068 -0.089763 -0.014528 0.000000
4.996000 0.004602 -0.014531 0.190828 0.000000
4.998000 0.004602 0.190819 0.021758 0.000000
5.000000 0.004602 0.021768 -0.112340 0.000000
5.002000 0.003068 -0.112333 -0.056110 0.000000
5.004000 0.003068 -0.056115 -0.056110 0.000000
5.006000 0.003068 -0.056072 0.043679 0.000000
5.008000 0.004602 0.043676 0.168699 0.000000
5.010000 0.004602 0.168694 0.168699 0.000000
5.012000 0.004602 0.168584 0.075416 0.000000
5.014000 0.003068 0.075420 -0.116519 0.000000
5.016000 0.003068 -0.116509 -0.056078 0.000000
5.018000 0.003068 -0.056082 0.009286 0.000000
5.020000 0.003068 0.009282 0.172502 0.000000
5.022000 0.004602 0.172494 0.172502 0.000000
5.024000 0.004602 0.172351 0.012603 0.000000
5.026000 0.004602 0.012608 -0.115016 0.000000
5.028000 0.003068 -0.115010 -0.115016 0.000000
5.030000 0.003068 -0.115013 -0.096542 0.000000
5.032000 0.003068 -0.096543 0.044514 0.000000
5.034000 0.004602 0.044506 0.161152 0.000000
5.036000 0.004602 0.161146 0.069764 0.000000
5.038000 0.004602 0.069770 0.069764 0.000000
5.040000 0.003068 0.069706 -0.082572 0.000000
5.042000 0.003068 -0.082568 -0.041350 0.000000
5.044000 0.003068 -0.041353 0.015110 0.000000
5.046000 0.004602 0.015106 0.015110 0.000000
5.048000 0.004602 0.015135 0.083598 0.000000
5.050000 0.004602 0.083596 -0.011534 0.000000
5.052000 0.004602 -0.011529 -0.094446 0.000000
5.054000 0.003068 -0.094442 -0.055699 0.000000
5.056000 0.003068 -0.055702 -0.055699 0.000000
5.058000 0.004602 -0.055722 -0.014291 0.000000
5.060000 0.004602 -0.014293 0.123404 0.000000
5.062000 0.004602 0.123397 0.061818 0.000000
5.064000 0.004602 0.061822 -0.065727 0.000000
5.066000 0.004602 -0.065720 -0.065727 0.000000
5.068000 0.004602 -0.065748 -0.022981 0.000000
5.070000 0.004602 -0.022983 -0.004335 0.000000
5.072000 0.004602 -0.004335 0.065765 0.000000
5.074000 0.004602 0.065761 0.065765 0.000000
5.076000 0.004602 0.065774 0.037294 0.000000
5.078000 0.004602 0.037295 -0.027183 0.000000
5.080000 0.004602 -0.027180 -0.016346 0.000000
5.082000 0.004602 -0.016347 -0.013535 0.000000
5.084000 0.004602 -0.013535 -0.013535 0.000000
5.086000 0.004602 -0.013484 0.044218 0.000000
5.088000 0.004602 0.044216 -0.005970 0.000000
5.090000 0.004602 -0.005968 -0.014386 0.000000
5.092000 0.004602 -0.014386 -0.014386 0.000000
5.094000 0.004602 -0.014457 -0.029364 0.000000
5.096000 0.004602 -0.029364 -0.018382 0.000000
5.098000 0.004602 -0.018382 0.003846 0.000000
5.100000 0.004602 0.003844 -0.006811 0.000000
5.102000 0.004602 -0.006810 -0.006811 0.000000
5.104000 0.004602 -0.006811 -0.010788 0.000000
5.106000 0.004602 -0.010788 0.008234 0.000000
5.108000 0.004602 0.008233 -0.016790 0.000000
5.110000 0.004602 -0.016789 -0.016790 0.000000
5.112000 0.004602 -0.016757 -0.032799 0.000000
5.114000 0.004602 -0.032798 -0.034024 0.000000
5.116000 0.004602 -0.034025 0.000554 0.000000
5.118000 0.004602 0.000552 0.017653 0.000000
5.120000 0.004602 0.017653 0.017653 0.000000
5.122000 0.004602 0.017627 -0.041981 0.000000
5.124000 0.004602 -0.041979 -0.047203 0.000000
5.126000 0.004602 -0.047204 -0.020316 0.000000
5.128000 0.004602 -0.020318 0.035925 0.000000
5.130000 0.004602 0.035921 0.035925 0.000000
5.132000 0.004602 0.035865 0.025776 0.000000
5.134000 0.004602 0.025777 -0.035824 0.000000
5.136000 0.004602 -0.035821 -0.077322 0.000000
5.138000 0.004602 -0.077320 -0.077322 0.000000
5.140000 0.004602 -0.077292 -0.069072 0.000000
5.142000 0.004602 -0.069073 0.066528 0.000000
5.144000 0.004602 0.066521 0.071188 0.000000
5.146000 0.004602 0.071188 -0.004591 0.000000
5.148000 0.004602 -0.004587 -0.004591 0.000000
5.150000 0.004602 -0.004598 -0.085967 0.000000
5.152000 0.004602 -0.085965 -0.012817 0.000000
5.154000 0.004602 -0.012821 0.087814 0.000000
5.156000 0.004602 0.087809 0.087814 0.000000
5.158000 0.004602 0.087735 0.134654 0.000000
5.160000 0.004602 0.134653 -0.082770 0.000000
5.162000 0.004602 -0.082758 -0.109229 0.000000
5.164000 0.004602 -0.109229 -0.061596 0.000000
5.166000 0.004602 -0.061599 -0.061596 0.000000
5.168000 0.004602 -0.061560 0.152848 0.000000
5.170000 0.004602 0.152843 0.105350 0.000000
5.172000 0.004602 0.105354 -0.028149 0.000000
5.174000 0.004602 -0.028142 -0.028149 0.000000
5.176000 0.004602 -0.028173 -0.108367 0.000000
5.178000 0.004602 -0.108365 -0.006866 0.000000
5.180000 0.004602 -0.006873 0.112490 0.000000
5.182000 0.004602 0.112484 0.182930 0.000000
5.184000 0.004602 0.182927 0.182930 0.000000
5.186000 0.004602 0.182762 -0.107478 0.000000
5.188000 0.004602 -0.107470 -0.098730 0.000000
5.190000 0.004602 -0.098732 -0.036372 0.000000
5.192000 0.004602 -0.036376 0.067084 0.000000
